time,seconds_elapsed,z,y,x
1701089663373949200,0.03794921875,0,0,0
1701089663392648400,0.0566484375,-0.08546304702758789,0.068267822265625,0.057935237884521484
1701089663411348000,0.075347900390625,-0.12105369567871094,0.06378841400146484,0.0395054817199707
1701089663430047200,0.094047119140625,0.012998104095458984,0.040358543395996094,-0.1352376937866211
1701089663448746800,0.112746826171875,0.16457080841064453,-0.04552793502807617,-0.1890568733215332
1701089663467446000,0.131446044921875,0.1643509864807129,-0.18213939666748047,-0.08057308197021484
1701089663486145500,0.1501455078125,0.20290088653564453,-0.2701425552368164,0.03356647491455078
1701089663504844800,0.1688447265625,0.3003835678100586,-0.23079776763916016,0.1432328224182129
1701089663523544300,0.18754443359375,0.34735965728759766,-0.13553380966186523,0.2555656433105469
1701089663542243800,0.206243896484375,0.39284324645996094,-0.10741758346557617,0.2480325698852539
1701089663560943000,0.224943115234375,0.3227577209472656,-0.3987441062927246,0.15771150588989258
1701089663579642400,0.243642333984375,0.4520864486694336,-0.4163360595703125,0.10468149185180664
1701089663598342000,0.262341796875,0.4026961326599121,-0.2725977897644043,-0.08462381362915039
1701089663617041400,0.28104150390625,0.22632074356079102,-0.23575115203857422,-0.25681638717651367
1701089663635740700,0.29974072265625,1.6988224983215332,0.3265037536621094,-0.751610279083252
1701089663654440200,0.318440185546875,0.24544191360473633,-0.27529335021972656,-0.6074204444885254
1701089663673139500,0.337139404296875,0.009219169616699219,-0.18034744262695312,-0.742365837097168
1701089663691839000,0.3558388671875,0.2741050720214844,-0.8202943801879883,0.443967342376709
1701089663710538200,0.374538330078125,-1.6659703254699707,-0.7518839836120605,1.4560227394104004
1701089663729237800,0.39323779296875,-1.245100975036621,-0.2613487243652344,1.4861726760864258
1701089663747937300,0.411937255859375,1.0725288391113281,-0.28302860260009766,2.1316823959350586
1701089663766636500,0.430636474609375,1.6134090423583984,1.0360016822814941,2.2762093544006348
1701089663785335800,0.449335693359375,1.4437155723571777,1.7109479904174805,1.210421085357666
1701089663804035300,0.468035400390625,0.849327564239502,0.19697332382202148,0.7655210494995117
1701089663822734800,0.48673486328125,-0.693023681640625,-0.11798954010009766,0.1550159454345703
1701089663841434000,0.50543408203125,-1.8071906566619873,0.02320098876953125,0.3382692337036133
1701089663860133600,0.524133544921875,-2.8093318939208984,-0.24202919006347656,-0.9513521194458008
1701089663878833000,0.5428330078125,-1.804145097732544,-0.6931324005126953,-3.112173080444336
1701089663897532400,0.561532470703125,-0.7055044174194336,-0.34601259231567383,-1.909632682800293
1701089663916231700,0.580231689453125,-0.22891521453857422,-0.6167726516723633,-0.3304443359375
1701089663934931200,0.59893115234375,-0.5412451028823853,-1.322263240814209,0.7281589508056641
1701089663953630500,0.61763037109375,-0.09526491165161133,-1.5547070503234863,0.4304661750793457
1701089663972330000,0.636330078125,0.27382004261016846,-0.8700470924377441,-1.9181175231933594
1701089663991029200,0.655029296875,-0.16026443243026733,0.2930731773376465,-2.2481980323791504
1701089664009728800,0.673728759765625,-0.5161837339401245,0.5258703231811523,-0.7596125602722168
1701089664028428000,0.692427978515625,0.668886661529541,-0.2131047248840332,-0.7655601501464844
1701089664047127600,0.71112744140625,1.1681196689605713,-0.4461827278137207,-1.8849234580993652
1701089664065827000,0.7298271484375,0.5736876726150513,0.3850278854370117,-2.07493257522583
1701089664084526300,0.7485263671875,-0.8458688259124756,0.3993864059448242,-0.18428564071655273
1701089664103225600,0.7672255859375,-0.7134538888931274,-0.2944192886352539,-0.3014945983886719
1701089664121925000,0.785925048828125,0.3601987957954407,-0.3818988800048828,-0.5323362350463867
1701089664140624600,0.804624755859375,1.0617269277572632,-0.19169998168945312,1.3012800216674805
1701089664159324000,0.823323974609375,1.025853157043457,-0.0091094970703125,2.872039794921875
1701089664178023400,0.8420234375,0.8857311606407166,-0.2666025161743164,2.8910951614379883
1701089664196722700,0.86072265625,1.3700460195541382,-0.2788734436035156,0.6152744293212891
1701089664215422200,0.879422119140625,1.3902846574783325,0.20611190795898438,-0.1640644073486328
1701089664234121500,0.89812158203125,1.7147507667541504,0.3802499771118164,0.23154687881469727
1701089664252821000,0.916821044921875,1.963026523590088,0.09647655487060547,0.8987131118774414
1701089664271520500,0.9355205078125,2.011922597885132,-0.2248678207397461,-0.5211949348449707
1701089664290219800,0.9542197265625,0.8499994874000549,0.36162757873535156,-1.3406791687011719
1701089664308919000,0.9729189453125,0.1600733995437622,0.7655086517333984,0.13242864608764648
1701089664327618600,0.99161865234375,0.0786522626876831,0.34679603576660156,1.6319499015808105
1701089664346318000,1.010318115234375,0.5065697431564331,0.03572273254394531,0.9891023635864258
1701089664365017300,1.029017333984375,1.0132582187652588,-0.0696868896484375,-1.5621275901794434
1701089664383716900,1.047716796875,1.5135130882263184,-0.09743309020996094,-3.182922840118408
1701089664402416000,1.066416015625,0.7372925281524658,-0.9895744323730469,-1.6859216690063477
1701089664421115600,1.08511572265625,-0.8187822103500366,-0.9606342315673828,0.8562030792236328
1701089664439815000,1.10381494140625,0.5189012289047241,-0.13883209228515625,2.249215841293335
1701089664458514400,1.122514404296875,1.7627179622650146,0.030033111572265625,0.1022789478302002
1701089664477213700,1.141213623046875,1.0185335874557495,-0.8113031387329102,-0.46980762481689453
1701089664495913200,1.159913330078125,0.5847620964050293,-0.7250328063964844,-1.8713748455047607
1701089664514612500,1.178612548828125,-0.07667183876037598,-0.4483814239501953,-2.890632390975952
1701089664533312000,1.19731201171875,-0.7774059772491455,-0.6074752807617188,0.0916750431060791
1701089664552011300,1.21601123046875,-1.5432682037353516,-0.9102973937988281,0.8641700744628906
1701089664570710800,1.234710693359375,-1.1891155242919922,-0.41310787200927734,0.5597362518310547
1701089664589410300,1.253410400390625,0.29473280906677246,-0.13988208770751953,1.252204179763794
1701089664608109600,1.272109619140625,-0.14316964149475098,0.25264549255371094,1.6316614151000977
1701089664626808800,1.290808837890625,-0.8156673908233643,0.4634828567504883,0.9575049877166748
1701089664645508400,1.30950830078125,-0.22700953483581543,0.28129100799560547,-0.966964840888977
1701089664664208000,1.328207763671875,0.12603521347045898,0.5978174209594727,-2.3766722679138184
1701089664682907100,1.3469072265625,0.6343837976455688,0.5658655166625977,-1.4078905582427979
1701089664701606700,1.365606689453125,1.3004121780395508,0.39958763122558594,0.9389116764068604
1701089664720306000,1.384305908203125,0.4589446783065796,0.10051918029785156,1.888044834136963
1701089664739005400,1.40300537109375,-0.20708250999450684,0.1848001480102539,-0.270449161529541
1701089664757704700,1.42170458984375,-0.9843182563781738,-0.5020341873168945,0.4041256904602051
1701089664776404200,1.440404296875,-1.2208003997802734,0.37500476837158203,-0.6438243389129639
1701089664795103500,1.459103515625,-0.935619592666626,0.4223604202270508,-0.8378942012786865
1701089664813803000,1.477802978515625,-0.8412532806396484,0.2784576416015625,-0.35659265518188477
1701089664832502300,1.496502197265625,0.5051978826522827,-0.06170940399169922,0.7434029579162598
1701089664851201800,1.515201904296875,0.16490328311920166,-0.022552490234375,0.2450883388519287
1701089664869901000,1.533901123046875,0.5129350423812866,-0.5842523574829102,0.37913966178894043
1701089664888600600,1.5526005859375,0.5946060419082642,-0.6710529327392578,-0.40639829635620117
1701089664907300000,1.571300048828125,-0.23437416553497314,-0.6685771942138672,-0.4306751489639282
1701089664925999400,1.589999267578125,0.35604679584503174,-1.0289058685302734,-0.2279796600341797
1701089664944698600,1.60869873046875,1.1709492206573486,-0.9624795913696289,0.48210620880126953
1701089664963398100,1.627398193359375,0.5002256631851196,-0.02905559539794922,-0.22993862628936768
1701089664982097700,1.64609765625,-0.18685078620910645,0.10555648803710938,0.08461165428161621
1701089665000797000,1.664796875,1.1752634048461914,-0.6482410430908203,-0.26694416999816895
1701089665019496400,1.683496337890625,1.4519718885421753,-1.3289222717285156,0.35636699199676514
1701089665038195700,1.70219580078125,1.089015245437622,-1.7447185516357422,0.06371068954467773
1701089665056895200,1.720895263671875,1.1602602005004883,-2.1275672912597656,-0.4130733609199524
1701089665075594500,1.739594482421875,1.3946166038513184,-2.4121503829956055,-1.0655937194824219
1701089665094294000,1.7582939453125,1.0564419031143188,-2.3540496826171875,-0.7651168704032898
1701089665112993500,1.77699365234375,0.42148521542549133,-1.8987202644348145,-0.40181368589401245
1701089665131692800,1.79569287109375,-0.13751721382141113,-1.4794187545776367,-0.5848405361175537
1701089665150392000,1.81439208984375,-0.6108297109603882,-0.9437255859375,-0.6508001089096069
1701089665169091600,1.833091552734375,-0.9806513786315918,-0.8958101272583008,-0.740424394607544
1701089665187790800,1.851790771484375,-0.7684059143066406,-1.453608512878418,-0.7412203550338745
1701089665206490400,1.870490478515625,-1.1913731098175049,-1.0179595947265625,-0.35071176290512085
1701089665225190000,1.88918994140625,-1.2986270189285278,-0.6571731567382812,0.19381070137023926
1701089665243889200,1.90788916015625,-0.718995213508606,-0.6106891632080078,0.32566404342651367
1701089665262588400,1.92658837890625,-0.03954875469207764,-0.14576244354248047,0.43715816736221313
1701089665281288000,1.945287841796875,-0.689753532409668,0.3946666717529297,0.36827775835990906
1701089665299987500,1.963987548828125,0.7423770427703857,0.7714824676513672,1.347347617149353
1701089665318686700,1.982686767578125,-0.32938098907470703,0.6570606231689453,0.5587005019187927
1701089665337386200,2.00138623046875,-0.36080050468444824,0.7978229522705078,0.7260324358940125
1701089665356085500,2.02008544921875,-0.8953806161880493,0.6318483352661133,0.5910606384277344
1701089665374784800,2.03878466796875,-1.048896312713623,1.7917165756225586,0.2177770435810089
1701089665393484300,2.057484375,-1.1397889852523804,3.2255916595458984,-0.8238182663917542
1701089665412183800,2.076183837890625,-1.3362029790878296,2.989511489868164,0.35546785593032837
1701089665430883000,2.094883056640625,-1.044909119606018,2.914242744445801,0.031752511858940125
1701089665449582600,2.11358251953125,-0.8536222577095032,2.2795639038085938,0.18413013219833374
1701089665468281900,2.13228173828125,-0.443503737449646,1.4623374938964844,-0.5451828837394714
1701089665486981400,2.1509814453125,-0.16899168491363525,0.5564260482788086,0.006804227828979492
1701089665505680600,2.1696806640625,-0.4769936203956604,0.5707864761352539,0.28843390941619873
1701089665524380200,2.188380126953125,-1.0753780603408813,0.8647785186767578,-0.5735138058662415
1701089665543079700,2.20707958984375,-0.6556586623191833,0.8737335205078125,-0.18985462188720703
1701089665561779000,2.225779052734375,-0.3397887349128723,0.5223922729492188,0.2561136484146118
1701089665580478200,2.244478271484375,0.07224023342132568,-0.02024078369140625,-0.1033252477645874
1701089665599177700,2.263177734375,-0.07268381118774414,0.6284999847412109,0.20188653469085693
1701089665617877200,2.281877197265625,0.03355574607849121,2.1329946517944336,-0.11647284030914307
1701089665636576500,2.300576416015625,0.583411455154419,1.550689697265625,-0.027759671211242676
1701089665655276000,2.319276123046875,1.1623109579086304,0.5374317169189453,-0.0068056583404541016
1701089665673975300,2.337975341796875,1.4654086828231812,0.1584939956665039,-0.12509357929229736
1701089665692674800,2.3566748046875,1.9809263944625854,0.26990413665771484,-1.3114269971847534
1701089665711374000,2.3753740234375,1.9024441242218018,0.7071151733398438,0.15304601192474365
1701089665730073600,2.394073486328125,0.33115267753601074,0.8440666198730469,-0.5635149478912354
1701089665748772900,2.41277294921875,-0.7237064838409424,0.9954671859741211,-0.5722606182098389
1701089665767472400,2.431472412109375,-0.5350840091705322,0.48806285858154297,-0.8430094718933105
1701089665786171600,2.450171630859375,-0.25879526138305664,0.089080810546875,-0.6124358177185059
1701089665804871200,2.46887109375,-0.23235034942626953,0.08807563781738281,-0.8929121494293213
1701089665823570400,2.4875703125,-0.31882166862487793,-0.5527992248535156,-0.3973836898803711
1701089665842270000,2.50627001953125,0.612755298614502,-0.8204832077026367,-0.49690866470336914
1701089665860969500,2.524969482421875,0.19736480712890625,-0.13025474548339844,-0.48301374912261963
1701089665879668700,2.543668701171875,0.320406436920166,0.23179054260253906,-0.2449197769165039
1701089665898368000,2.562367919921875,0.11021637916564941,0.4254732131958008,-0.2949448823928833
1701089665917067500,2.581067626953125,-0.20176053047180176,0.5314188003540039,-0.3004791736602783
1701089665935767000,2.59976708984375,-0.4272022247314453,0.3073997497558594,-0.6966234445571899
1701089665954466300,2.61846630859375,0.06821560859680176,-0.3693733215332031,0.17935919761657715
1701089665973165800,2.637165771484375,0.41185712814331055,-0.6464042663574219,0.14371371269226074
1701089665991865000,2.655864990234375,-0.25876307487487793,0.3325777053833008,-0.6102699041366577
1701089666010564600,2.674564697265625,-0.07995200157165527,0.46494388580322266,-0.20878863334655762
1701089666029264000,2.693263916015625,-0.03380227088928223,-0.1147003173828125,0.09019100666046143
1701089666047963400,2.71196337890625,-0.9400362968444824,0.6861362457275391,0.00554811954498291
1701089666066662700,2.73066259765625,-0.89988112449646,0.6919794082641602,-0.331451416015625
1701089666085362200,2.749362060546875,-0.5043399333953857,0.38869476318359375,0.20623886585235596
1701089666104061400,2.7680615234375,0.12043166160583496,0.050624847412109375,0.9788131713867188
1701089666122761000,2.786760986328125,-0.6905794143676758,-0.17180442810058594,-0.32072746753692627
1701089666141460200,2.805460205078125,-0.5285401344299316,-1.0218391418457031,-0.29636120796203613
1701089666160159700,2.82415966796875,-0.22339177131652832,-1.9369525909423828,0.5061866044998169
1701089666178859300,2.842859375,-0.8682093620300293,-0.703272819519043,1.0278043746948242
1701089666197558500,2.86155859375,-0.8778767585754395,-0.357147216796875,0.31112849712371826
1701089666216257800,2.8802578125,-0.7622694969177246,0.7183103561401367,-0.04179120063781738
1701089666234957300,2.898957275390625,-0.9843449592590332,0.8796205520629883,-2.5988616943359375
1701089666253656800,2.91765673828125,0.5193872451782227,0.12848949432373047,1.1128538846969604
1701089666272356000,2.936356201171875,0.31273746490478516,0.1472034454345703,1.4012084007263184
1701089666291055600,2.9550556640625,-0.3463740348815918,1.1808547973632812,0.1468493938446045
1701089666309755000,2.9737548828125,-0.8568439483642578,0.1938800811767578,-1.3092334270477295
1701089666328454100,2.9924541015625,-1.048698902130127,0.15750694274902344,-1.0417017936706543
1701089666347153700,3.011153564453125,-0.50421142578125,0.9692745208740234,-0.0236513614654541
1701089666365853200,3.029853271484375,0.1521761417388916,1.3901681900024414,-0.5066961050033569
1701089666384552400,3.048552490234375,0.5317025184631348,1.124002456665039,-0.4555659294128418
1701089666403252000,3.067251953125,0.554764986038208,0.6087522506713867,0.6297388076782227
1701089666421951200,3.085951171875,0.010413646697998047,-0.2222728729248047,0.07590055465698242
1701089666440650800,3.104650634765625,-0.35385751724243164,0.38374996185302734,-0.18543970584869385
1701089666459350000,3.12335009765625,-1.114551067352295,2.455045700073242,-2.457294464111328
1701089666478049500,3.142049560546875,-1.133352518081665,2.80410099029541,-2.0337767601013184
1701089666496749000,3.1607490234375,-0.08981633186340332,2.6843881607055664,-0.6869993209838867
1701089666515448300,3.1794482421875,0.9524083137512207,1.111241340637207,-0.28026294708251953
1701089666534147600,3.198147705078125,1.0886725187301636,0.29940128326416016,0.31176257133483887
1701089666552847000,3.21684716796875,1.026532530784607,-0.4190034866333008,0.9754742383956909
1701089666571546600,3.235546630859375,0.7753174304962158,-0.1085977554321289,0.0339130163192749
1701089666590246000,3.254245849609375,0.8248341083526611,0.6047000885009766,-0.06243300437927246
1701089666608945400,3.2729453125,1.8930838108062744,-0.5707435607910156,1.6606824398040771
1701089666627644700,3.291644775390625,2.0165371894836426,-1.9746837615966797,0.7239004373550415
1701089666646344200,3.31034423828125,1.8487234115600586,-2.6601619720458984,-1.4021999835968018
1701089666665043500,3.32904345703125,1.1676726341247559,-4.184341907501221,-1.5452213287353516
1701089666683743000,3.347742919921875,1.935957908630371,-4.41049861907959,-0.2252609133720398
1701089666702442200,3.366442138671875,1.9001774787902832,-2.693014144897461,0.21327975392341614
1701089666721141800,3.385141845703125,1.2323431968688965,-1.2433881759643555,0.39000144600868225
1701089666739841000,3.403841064453125,1.0813102722167969,-2.145580291748047,-0.8697242736816406
1701089666758540500,3.42254052734375,0.9139659404754639,-3.779287338256836,-0.22484716773033142
1701089666777239800,3.44123974609375,0.6705617904663086,-2.3535842895507812,1.897489070892334
1701089666795939300,3.459939208984375,-0.41852378845214844,-1.292675495147705,1.183692216873169
1701089666814638800,3.478638916015625,-1.9853644371032715,-1.14715576171875,-0.7257333993911743
1701089666833338000,3.497338134765625,-2.218277931213379,-0.3067479133605957,-1.5972228050231934
1701089666852037400,3.516037353515625,-5.399322986602783,5.9293012619018555,-2.7738592624664307
1701089666870737000,3.53473681640625,-2.4386487007141113,2.7656002044677734,1.488077163696289
1701089666889436400,3.5534365234375,-1.026639461517334,0.6741466522216797,1.8763980865478516
1701089666908135700,3.5721357421875,-1.9345288276672363,-0.7300128936767578,-0.2891905903816223
1701089666926835200,3.590835205078125,-1.2556238174438477,-1.1258845329284668,0.39649519324302673
1701089666945534500,3.609534423828125,0.5588655471801758,0.17253684997558594,0.4758719801902771
1701089666964234000,3.62823388671875,1.0848493576049805,2.4995603561401367,1.0975385904312134
1701089666982933200,3.646933349609375,0.5457329750061035,1.5931158065795898,-0.7538517117500305
1701089667001632800,3.6656328125,-1.0273308753967285,0.876246452331543,-0.536039412021637
1701089667020332000,3.68433203125,-0.5632681846618652,0.6648454666137695,1.3542356491088867
1701089667039031600,3.703031494140625,-1.0551753044128418,-1.985342025756836,0.7183041572570801
1701089667057730800,3.721730712890625,-2.088102340698242,-2.3807716369628906,-1.1668407917022705
1701089667076430300,3.740430419921875,-3.485642910003662,1.2404394149780273,-1.6144152879714966
1701089667095129600,3.759129638671875,-2.78519344329834,1.0571441650390625,0.08354202657938004
1701089667113829000,3.7778291015625,-1.7718157768249512,-1.1474246978759766,-0.07643240690231323
1701089667132528600,3.796528564453125,-0.6486272811889648,-1.8926124572753906,1.5793182849884033
1701089667151228000,3.815227783203125,1.1729729175567627,-2.179287910461426,2.268714427947998
1701089667169927200,3.83392724609375,1.5992965698242188,-3.1944384574890137,-1.4998607635498047
1701089667188626700,3.852626708984375,1.5851473808288574,-1.320145606994629,-1.8741956949234009
1701089667207326200,3.871326171875,-0.5678305625915527,6.396635055541992,0.20658743381500244
1701089667226025500,3.890025390625,-0.5597572326660156,3.7546205520629883,-0.2810347378253937
1701089667244725000,3.90872509765625,-0.05138039588928223,-0.6928281784057617,1.097843885421753
1701089667263424300,3.92742431640625,-0.03454327583312988,-3.2174205780029297,0.5558695197105408
1701089667282123800,3.946123779296875,0.22180867195129395,-2.413517951965332,-2.0293197631835938
1701089667300823000,3.964822998046875,-0.2001936435699463,1.0658702850341797,0.2965781092643738
1701089667319522600,3.9835224609375,-0.1541893482208252,2.196976661682129,-1.1347017288208008
1701089667338221800,4.002221923828125,1.4838956594467163,-2.535104751586914,1.3362326622009277
1701089667356921300,4.02092138671875,1.2699507474899292,-2.9004955291748047,-0.060817085206508636
1701089667375620600,4.03962060546875,0.873332142829895,-0.01996612548828125,-1.4619311094284058
1701089667394320100,4.058320068359375,0.749172568321228,1.0604000091552734,-0.06173111870884895
1701089667413019400,4.077019287109375,0.9173935055732727,0.19359779357910156,1.6891298294067383
1701089667431719000,4.095718994140625,1.9099905490875244,-1.1940908432006836,1.4763970375061035
1701089667450418200,4.114418212890625,2.082984685897827,-2.2273192405700684,-0.2558218836784363
1701089667469117700,4.13311767578125,0.11196839809417725,-1.0018119812011719,-0.8107929825782776
1701089667487817000,4.15181689453125,-0.017090439796447754,0.5657930374145508,0.969987690448761
1701089667506516500,4.1705166015625,1.716550588607788,0.9527244567871094,1.9696308374404907
1701089667525215700,4.1892158203125,-0.7059615850448608,-0.2711057662963867,-1.2131173610687256
1701089667543915300,4.207915283203125,-3.049921989440918,1.4527959823608398,-2.1019153594970703
1701089667562614800,4.22661474609375,-1.723397970199585,2.0529890060424805,-0.04518580436706543
1701089667581314000,4.24531396484375,1.1407947540283203,-0.22341251373291016,1.7659575939178467
1701089667600013300,4.264013427734375,3.145573139190674,-0.9509172439575195,1.5856623649597168
1701089667618712800,4.282712890625,0.21165359020233154,-1.3348417282104492,-0.8408975601196289
1701089667637412000,4.301412109375,-1.0171263217926025,-0.5304765701293945,-0.13464301824569702
1701089667656111600,4.320111572265625,-2.142845630645752,0.3836841583251953,-0.9295428395271301
1701089667674811100,4.33881103515625,-0.322698712348938,2.070673942565918,-1.0474073886871338
1701089667693510400,4.357510498046875,2.1415460109710693,2.501389503479004,-0.9711813926696777
1701089667712209700,4.376209716796875,3.8244853019714355,-1.3126029968261719,0.6834320425987244
1701089667730909200,4.3949091796875,0.3389385938644409,-0.4911966323852539,-0.5545223951339722
1701089667749608700,4.413608642578125,-2.058375835418701,1.9155607223510742,-0.11519575119018555
1701089667768308000,4.432307861328125,-2.1926417350769043,-0.06158733367919922,-0.9714329242706299
1701089667787007500,4.451007568359375,1.034797191619873,-3.098909378051758,0.6448349952697754
1701089667805706800,4.469706787109375,1.7695839405059814,-3.0713181495666504,0.7465254068374634
1701089667824406300,4.48840625,-1.2534916400909424,-2.1494884490966797,1.0035006999969482
1701089667843105500,4.50710546875,-2.1724088191986084,0.6084661483764648,0.2546289563179016
1701089667861805000,4.52580517578125,-2.8006985187530518,5.08082389831543,0.2373848557472229
1701089667880504300,4.54450439453125,-1.0699527263641357,4.158705711364746,0.5439290404319763
1701089667899203800,4.563203857421875,-0.47586607933044434,1.8188371658325195,-1.2090272903442383
1701089667917903000,4.581903076171875,0.9239012002944946,-0.6124429702758789,-0.02496969699859619
1701089667936602600,4.6006025390625,1.8513497114181519,-3.9639344215393066,1.3259389400482178
1701089667955302000,4.619302001953125,1.2186155319213867,-3.2628345489501953,0.32029449939727783
1701089667974001400,4.63800146484375,-0.5971724987030029,-0.08673095703125,-0.7318929433822632
1701089667992701000,4.656700927734375,-0.15583181381225586,0.3870820999145508,-0.4896136522293091
1701089668011400200,4.675400146484375,-0.2134547233581543,0.9913673400878906,-0.271310031414032
1701089668030099500,4.694099365234375,-0.9713044166564941,2.2688302993774414,-0.317425012588501
1701089668048799000,4.712799072265625,-2.2223167419433594,2.3582963943481445,-0.005597591400146484
1701089668067498500,4.73149853515625,-1.49187171459198,1.3347797393798828,1.4204329252243042
1701089668086197800,4.75019775390625,0.6151890754699707,-1.1165475845336914,1.2479734420776367
1701089668104897300,4.768897216796875,-0.4589552879333496,-1.7326579093933105,1.4409825801849365
1701089668123596500,4.787596435546875,-1.8581733703613281,-0.7062015533447266,-0.4867130517959595
1701089668142295800,4.8062958984375,-0.3186763525009155,0.1912097930908203,-0.8877871036529541
1701089668160995300,4.824995361328125,1.8445265293121338,1.4599266052246094,-0.8024643659591675
1701089668179694800,4.84369482421875,2.069314956665039,1.2292957305908203,-1.6464922428131104
1701089668198394000,4.86239404296875,1.882577657699585,1.3835935592651367,-1.43040931224823
1701089668217093600,4.88109375,0.2578803300857544,1.7936286926269531,-0.5598487854003906
1701089668235793000,4.89979296875,-0.40300071239471436,-1.3964500427246094,1.2810418605804443
1701089668254492400,4.918492431640625,-0.9063543081283569,-3.154630661010742,0.7150892019271851
1701089668273191700,4.937191650390625,-0.8763130903244019,0.6171188354492188,0.2499089241027832
1701089668291891200,4.95589111328125,0.6236788034439087,1.948760986328125,-0.6981346607208252
1701089668310590700,4.9745908203125,1.7571691274642944,-0.693364143371582,-0.7898772954940796
1701089668329290000,4.9932900390625,1.0254967212677002,-2.004957675933838,-2.9001498222351074
1701089668347989200,5.0119892578125,-0.08581757545471191,-1.7482185363769531,-2.984808921813965
1701089668366688800,5.030688720703125,-0.08133971691131592,-0.7356367111206055,-2.0744214057922363
1701089668385388300,5.04938818359375,1.5844515562057495,-2.086562156677246,-0.8216565251350403
1701089668404087600,5.068087646484375,1.4539451599121094,-2.6715335845947266,-0.40791481733322144
1701089668422787000,5.086787109375,1.472344994544983,-1.2939701080322266,2.1334586143493652
1701089668441486300,5.105486328125,0.2742727994918823,0.6330890655517578,2.777003765106201
1701089668460185600,5.124185546875,-1.4892468452453613,1.044224739074707,2.248471736907959
1701089668478885000,5.142885009765625,-3.2857203483581543,1.9059619903564453,1.4097166061401367
1701089668497584600,5.161584716796875,-3.912339210510254,0.5108509063720703,0.04948337376117706
1701089668516284000,5.180283935546875,-1.1011576652526855,-8.529313087463379,-1.003581166267395
1701089668534983400,5.1989833984375,-0.7213835716247559,-1.9964828491210938,-0.25762370228767395
1701089668553682700,5.2176826171875,0.02167344093322754,-0.0038480758666992188,2.3881025314331055
1701089668572382200,5.23638232421875,-2.028656005859375,2.861039161682129,3.7699801921844482
1701089668591081500,5.25508154296875,-0.3154100179672241,1.3032407760620117,4.8011698722839355
1701089668609781000,5.273781005859375,1.137807846069336,-1.5325241088867188,2.8521673679351807
1701089668628480500,5.29248046875,0.8734647035598755,0.7620868682861328,0.4088866114616394
1701089668647179800,5.3111796875,-0.47914397716522217,-0.5432624816894531,-1.8193631172180176
1701089668665879000,5.329879150390625,-0.9538141489028931,-0.8276758193969727,-3.0694398880004883
1701089668684578600,5.34857861328125,1.1249885559082031,-1.9502463340759277,-1.2512574195861816
1701089668703277800,5.36727783203125,2.909327983856201,0.14269733428955078,-0.7689130306243896
1701089668721977300,5.385977294921875,0.374997079372406,-0.38231945037841797,-0.14693167805671692
1701089668740676900,5.4046767578125,-3.0207207202911377,2.977206230163574,0.08258083462715149
1701089668759376100,5.423376220703125,-1.0066403150558472,0.3652172088623047,0.7501194477081299
1701089668778075400,5.442075439453125,0.3150937557220459,0.23189926147460938,1.4411377906799316
1701089668796775000,5.46077490234375,0.8657662868499756,0.2057819366455078,0.5796215534210205
1701089668815474200,5.47947412109375,1.2859145402908325,-1.0872611999511719,0.06619566679000854
1701089668834173700,5.498173583984375,0.18328535556793213,-1.9231162071228027,-0.745232880115509
1701089668852873200,5.516873291015625,1.0196597576141357,-1.2302923202514648,-2.6197988986968994
1701089668871572500,5.535572509765625,2.0001001358032227,0.9888219833374023,-3.8856868743896484
1701089668890271700,5.554271728515625,4.110710144042969,3.237550735473633,-3.7304646968841553
1701089668908971300,5.57297119140625,-0.3671395778656006,5.157865524291992,-1.4552090167999268
1701089668927670500,5.59167041015625,-1.1737065315246582,3.7884159088134766,-0.9048643708229065
1701089668946370000,5.6103701171875,-0.8126771450042725,2.405172348022461,1.1262954473495483
1701089668965069600,5.629069580078125,0.44798851013183594,0.1875925064086914,1.2611438035964966
1701089668983768800,5.647768798828125,1.8393951654434204,-2.1920371055603027,3.3273370265960693
1701089669002468400,5.66646826171875,4.391798496246338,-2.5336523056030273,1.1561646461486816
1701089669021167600,5.685167724609375,2.9640378952026367,0.07134246826171875,-1.6266549825668335
1701089669039867000,5.703866943359375,0.4970414638519287,-0.9370193481445312,6.362174987792969
1701089669058566400,5.72256640625,0.19815349578857422,-1.8056259155273438,5.235801696777344
1701089669077266000,5.741265869140625,-1.8956308364868164,-0.5743007659912109,-0.3523644208908081
1701089669095965200,5.759965087890625,-2.70882511138916,0.24271106719970703,-1.0893499851226807
1701089669114664700,5.778664794921875,-2.7004237174987793,0.49659061431884766,-1.0360546112060547
1701089669133364000,5.797364013671875,-1.827397346496582,1.214517593383789,-1.0049774646759033
1701089669152063200,5.816063232421875,-1.043741226196289,0.7908077239990234,-0.692502498626709
1701089669170762800,5.8347626953125,-0.9800434112548828,0.2400341033935547,-0.5922431945800781
1701089669189462000,5.8534619140625,-0.32552385330200195,-0.31573486328125,-0.315650999546051
1701089669208161500,5.87216162109375,0.6165618896484375,-0.17617511749267578,-0.6013401746749878
1701089669226861000,5.890861083984375,0.43327808380126953,-0.30353546142578125,-0.10358178615570068
1701089669245560300,5.909560302734375,-0.3757591247558594,-0.49806690216064453,0.5372732877731323
1701089669264259600,5.928259521484375,-0.4251737594604492,-0.7496471405029297,0.9470568895339966
1701089669282959000,5.946958984375,0.06820392608642578,-0.6503944396972656,1.268761396408081
1701089669301658400,5.965658447265625,-0.13446569442749023,-0.08543109893798828,1.2542943954467773
1701089669320358000,5.98435791015625,-0.6070132255554199,0.26659107208251953,0.7498164176940918
1701089669339057400,6.003057373046875,-0.7913126945495605,0.38774681091308594,0.014714241027832031
1701089669357756700,6.021756591796875,-0.5780506134033203,0.6271533966064453,-0.8714451193809509
1701089669376456000,6.0404560546875,-1.0195422172546387,0.24161148071289062,-0.7375825047492981
1701089669395155500,6.059155517578125,-0.9885034561157227,-0.5189571380615234,-0.08260542154312134
1701089669413854700,6.077854736328125,-0.49469900131225586,-0.3899974822998047,-0.08114910125732422
1701089669432554200,6.09655419921875,0.14157772064208984,-0.21839332580566406,-0.26773738861083984
1701089669451253800,6.115253662109375,0.5769329071044922,-0.3483600616455078,-0.8410277962684631
1701089669469953000,6.133953125,0.3207736015319824,-0.4399538040161133,-1.3081718683242798
1701089669488652300,6.15265234375,-0.23954200744628906,-0.1466226577758789,-1.5995686054229736
1701089669507351800,6.171351806640625,-0.6101484298706055,0.24338245391845703,-1.2467758655548096
1701089669526051000,6.190051025390625,-0.3542327880859375,0.34757423400878906,-0.9169416427612305
1701089669544750600,6.20875048828125,0.44551801681518555,0.16186141967773438,-0.5333846211433411
1701089669563449900,6.227449951171875,1.025568962097168,-0.03697967529296875,-0.48371171951293945
1701089669582149400,6.2461494140625,0.7764730453491211,0.0804901123046875,-0.8193421959877014
1701089669600848600,6.2648486328125,-0.1892991065979004,0.12056922912597656,-1.1190357208251953
1701089669619548200,6.283548095703125,-0.8681807518005371,-0.15840911865234375,-1.5960502624511719
1701089669638247400,6.302247314453125,-0.518038272857666,-0.36521244049072266,-1.800865888595581
1701089669656947000,6.320947021484375,0.46782350540161133,-0.47374916076660156,-1.5112011432647705
1701089669675646200,6.339646240234375,1.1009316444396973,-0.8009767532348633,-1.182856559753418
1701089669694345700,6.358345703125,1.017590045928955,-1.0694541931152344,-1.2014282941818237
1701089669713045000,6.377044921875,0.4276118278503418,-1.1507716178894043,-1.1814312934875488
1701089669731744500,6.39574462890625,-0.38010358810424805,-0.753143310546875,-0.7135895490646362
1701089669750443800,6.41444384765625,-0.35010623931884766,-0.45613670349121094,-0.21298789978027344
1701089669769143300,6.433143310546875,0.25292205810546875,-0.2261037826538086,0.5838498473167419
1701089669787842600,6.451842529296875,-0.5161118507385254,-0.4322509765625,1.0627923011779785
1701089669806542000,6.4705419921875,-0.24677801132202148,-0.7787036895751953,0.0928182601928711
1701089669825241300,6.489241455078125,0.713923454284668,-0.29044342041015625,-0.7448886632919312
1701089669843940900,6.50794091796875,0.1809687614440918,0.6127481460571289,-1.0567872524261475
1701089669862640000,6.52664013671875,-1.0702619552612305,0.9727993011474609,-0.7771347761154175
1701089669881339600,6.545339599609375,-1.522768497467041,0.8401718139648438,0.1291804313659668
1701089669900039000,6.564038818359375,-1.4972801208496094,0.8836154937744141,1.1307728290557861
1701089669918738400,6.582738525390625,-1.275130271911621,0.9885444641113281,0.9618512392044067
1701089669937437700,6.601437744140625,-0.43084096908569336,0.9311428070068359,0.7388257384300232
1701089669956137000,6.620136962890625,0.24137210845947266,0.7473869323730469,0.5574376583099365
1701089669974836500,6.63883642578125,0.5010519027709961,0.6020832061767578,0.34212857484817505
1701089669993536000,6.657535888671875,0.2780156135559082,0.3592367172241211,0.11310482025146484
1701089670012235300,6.6762353515625,0.14975833892822266,0.18833351135253906,0.06803786754608154
1701089670030934800,6.694934814453125,0.14991044998168945,-0.10150909423828125,0.5067984461784363
1701089670049634000,6.713634033203125,0.10593748092651367,-0.40593814849853516,0.7960427403450012
1701089670068333300,6.732333251953125,0.3027305603027344,-1.1159000396728516,1.4478623867034912
1701089670087032800,6.75103271484375,-0.41210031509399414,-1.378143310546875,0.5048800110816956
1701089670105732400,6.769732421875,0.4332871437072754,-0.34607505798339844,1.0681878328323364
1701089670124431600,6.788431640625,1.058732271194458,0.49253368377685547,0.15082299709320068
1701089670143131100,6.807131103515625,-1.4064936637878418,0.5326738357543945,-0.24737882614135742
1701089670161830400,6.825830322265625,-1.4898357391357422,0.12796783447265625,0.5165581703186035
1701089670180529700,6.84452978515625,-0.1317434310913086,0.09482383728027344,0.20890390872955322
1701089670199229200,6.863229248046875,0.16640567779541016,0.10892963409423828,0.335895299911499
1701089670217928400,6.881928466796875,-0.08527135848999023,-0.04387092590332031,0.04595065116882324
1701089670236628000,6.9006279296875,-0.18901395797729492,-0.18605709075927734,-0.017646729946136475
1701089670255327500,6.919327392578125,-0.20051956176757812,-0.4262094497680664,0.11069446802139282
1701089670274026800,6.93802685546875,0.016613483428955078,-0.5875539779663086,0.04565989971160889
1701089670292726000,6.95672607421875,0.3657979965209961,-0.59393310546875,-0.09198737144470215
1701089670311425500,6.975425537109375,0.18767118453979492,-0.5072422027587891,-0.19228172302246094
1701089670330124800,6.994124755859375,-0.20067119598388672,-0.5167303085327148,-0.2852053642272949
1701089670348824300,7.01282421875,-0.4670372009277344,-0.44232940673828125,-0.3098188042640686
1701089670367523600,7.031523681640625,-0.5074748992919922,-0.38039112091064453,-0.16939789056777954
1701089670386223000,7.05022314453125,-0.19591617584228516,-0.2839031219482422,-0.06426411867141724
1701089670404922400,7.06892236328125,0.0771932601928711,-0.04175853729248047,0.016217589378356934
1701089670423622000,7.087621826171875,0.08136129379272461,-0.051123619079589844,-0.006166636943817139
1701089670442321200,7.106321044921875,0.023262977600097656,-0.2236013412475586,-0.0166245698928833
1701089670461020700,7.125020751953125,0.05672121047973633,-0.34461116790771484,-0.1467454433441162
1701089670479720000,7.143719970703125,0.0681619644165039,-0.3447246551513672,-0.2732713222503662
1701089670498419500,7.16241943359375,0.05881023406982422,-0.24287128448486328,-0.25988394021987915
1701089670517118700,7.18111865234375,0.02909994125366211,-0.3217029571533203,-0.21174639463424683
1701089670535818200,7.199818359375,-0.008672714233398438,-0.5370254516601562,-0.3066604733467102
1701089670554517500,7.218517578125,-0.006864070892333984,-0.844426155090332,-0.14738678932189941
1701089670573217000,7.237217041015625,0.12877511978149414,-1.0901784896850586,0.10345947742462158
1701089670591916300,7.255916259765625,0.3991246223449707,-1.0316600799560547,0.23366165161132812
1701089670610615800,7.27461572265625,0.5476727485656738,-1.0479583740234375,0.31150758266448975
1701089670629315000,7.293315185546875,0.5569190979003906,-1.0118999481201172,0.259377121925354
1701089670648014600,7.3120146484375,0.5914735794067383,-0.82861328125,0.08296507596969604
1701089670666713900,7.3307138671875,0.5826606750488281,-0.6591014862060547,0.10986965894699097
1701089670685413400,7.349413330078125,0.477048397064209,-0.6545710563659668,0.19987910985946655
1701089670704112600,7.368112548828125,0.3795175552368164,-0.48532581329345703,0.2810962498188019
1701089670722812200,7.386812255859375,0.06766653060913086,-0.33538055419921875,0.10297256708145142
1701089670741511400,7.405511474609375,-0.29789018630981445,-0.3654637336730957,0.07480281591415405
1701089670760211000,7.4242109375,-0.2090907096862793,-0.38953208923339844,0.045494914054870605
1701089670778910200,7.44291015625,0.24116086959838867,-0.3151364326477051,-0.18823251128196716
1701089670797609500,7.461609375,0.54144287109375,-0.24941778182983398,-0.2964186370372772
1701089670816309000,7.48030908203125,0.3332557678222656,-0.4129362106323242,-0.23761001229286194
1701089670835008500,7.499008544921875,0.12669801712036133,-0.2081584930419922,-0.2710259258747101
1701089670853707800,7.517707763671875,0.16473007202148438,0.06100034713745117,-0.28300052881240845
1701089670872407300,7.5364072265625,0.19114971160888672,0.23937129974365234,-0.3474522829055786
1701089670891106600,7.5551064453125,0.014430522918701172,0.31177186965942383,-0.38361382484436035
1701089670909805800,7.573805908203125,0.1459498405456543,0.07427072525024414,-0.10736298561096191
1701089670928505300,7.59250537109375,0.2889523506164551,-0.2353062629699707,-0.10770589113235474
1701089670947204600,7.61120458984375,0.5504236221313477,-0.47646141052246094,0.20191270112991333
1701089670965904100,7.629904052734375,0.41557884216308594,0.13081598281860352,0.010388225317001343
1701089670984603600,7.648603759765625,0.04736518859863281,0.4022393226623535,0.0010559260845184326
1701089671003303000,7.667302978515625,-0.22558975219726562,0.12832164764404297,-0.2779372036457062
1701089671022002200,7.686002197265625,-0.06266021728515625,0.031783103942871094,-0.38642340898513794
1701089671040701700,7.70470166015625,-0.14893865585327148,0.26445436477661133,-0.2902495563030243
1701089671059401000,7.72340087890625,-0.30272722244262695,0.43665170669555664,-0.15803378820419312
1701089671078099700,7.742099609375,-0.7357878684997559,0.3804440498352051,-0.04050688445568085
1701089671096798700,7.760798828125,-0.7396678924560547,0.6901798248291016,0.015914276242256165
1701089671115498200,7.779498291015625,-0.4388880729675293,1.0365204811096191,-0.023957476019859314
1701089671134197800,7.79819775390625,0.008714675903320312,1.3309588432312012,-0.21872356534004211
1701089671152897000,7.81689697265625,-0.39189767837524414,1.316164493560791,-0.1684468686580658
1701089671171596500,7.835596435546875,-0.6390066146850586,0.8760218620300293,-0.06100066006183624
1701089671190295800,7.8542958984375,0.1044769287109375,0.6774678230285645,-0.023459695279598236
1701089671208995000,7.8729951171875,1.207435131072998,0.8623218536376953,-0.18451502919197083
1701089671227694600,7.891694580078125,0.9974822998046875,0.7890281677246094,-0.6292405724525452
1701089671246393900,7.910393798828125,-0.8874573707580566,0.8752269744873047,-0.8144712448120117
1701089671265093400,7.92909326171875,-2.105801582336426,1.217498779296875,-0.12819960713386536
1701089671283793000,7.94779296875,-0.9061894416809082,1.5843744277954102,-0.298709511756897
1701089671302492200,7.9664921875,0.31748247146606445,1.4192190170288086,-0.5220603346824646
1701089671321191400,7.98519140625,-0.318023681640625,1.0400276184082031,-0.3833136260509491
1701089671339891000,8.003890869140625,-1.9290771484375,1.4447112083435059,-0.5312223434448242
1701089671358590200,8.022590087890626,-2.1020150184631348,1.973226547241211,-0.4575435519218445
1701089671377289700,8.041289794921875,-1.1396160125732422,2.487574577331543,-0.29243332147598267
1701089671395989000,8.059989013671874,-0.5786385536193848,2.222947120666504,0.008833029307425022
1701089671414688500,8.0786884765625,0.16380739212036133,1.871072769165039,0.2139240801334381
1701089671433387800,8.0973876953125,0.22086858749389648,1.7568259239196777,0.4572167694568634
1701089671452087300,8.11608740234375,-1.8735723495483398,1.3759145736694336,0.4234761595726013
1701089671470786600,8.13478662109375,-2.8722238540649414,1.351511001586914,0.36876600980758667
1701089671489486000,8.153486083984374,-0.15404701232910156,1.2672009468078613,-0.014573359861969948
1701089671508185300,8.172185302734375,0.9182519912719727,1.22511625289917,-0.24954567849636078
1701089671526884900,8.190884765625,0.8264250755310059,1.482762336730957,0.3025553822517395
1701089671545584000,8.209584228515626,-3.560690402984619,1.7065997123718262,0.09285900741815567
1701089671564283400,8.228283447265625,-2.8206090927124023,1.3202323913574219,-0.20181220769882202
1701089671582983000,8.24698291015625,-5.559825897216797,1.2539849281311035,0.850724458694458
1701089671601682400,8.265682373046875,-4.4343461990356445,1.2000408172607422,1.0808359384536743
1701089671620381700,8.284381591796874,-3.506399631500244,0.36869001388549805,1.0148729085922241
1701089671639081200,8.303081298828126,-1.2415332794189453,0.1813492774963379,0.7586387991905212
1701089671657780500,8.321780517578125,-1.5439729690551758,0.5118179321289062,0.3002748489379883
1701089671676479700,8.340479736328126,-1.9087238311767578,1.8295650482177734,-1.0449881553649902
1701089671695179300,8.35917919921875,-1.7923431396484375,3.183591842651367,-1.0958707332611084
1701089671713878500,8.37787841796875,-1.0760388374328613,4.27116584777832,-1.1620635986328125
1701089671732578000,8.396578125,-1.2355375289916992,6.109891891479492,-2.4262118339538574
1701089671751277600,8.415277587890625,-0.6699361801147461,7.167971134185791,-2.709951162338257
1701089671769976800,8.433976806640626,-1.2689886093139648,9.118499755859375,-2.3620283603668213
1701089671788676000,8.452676025390625,-5.398092746734619,13.034482955932617,-2.190756320953369
1701089671807375600,8.471375732421874,-7.403624534606934,13.362194061279297,-3.1303458213806152
1701089671826075000,8.490074951171875,-16.066265106201172,9.907960891723633,-2.6617324352264404
1701089671844774400,8.5087744140625,-23.27511978149414,15.842459678649902,-0.5871169567108154
1701089671863473700,8.5274736328125,6.956597328186035,11.861940383911133,-0.252158522605896
1701089671882173200,8.546173095703125,16.1795654296875,-12.446057319641113,3.517296314239502
1701089671900872400,8.56487255859375,-5.003690719604492,-15.624039649963379,-1.8721219301223755
1701089671919572000,8.583572021484375,-0.05825948715209961,-21.452239990234375,9.017115592956543
1701089671938271200,8.602271240234375,-12.517512321472168,-21.56560516357422,11.929487228393555
1701089671956970800,8.620970703125,-8.405791282653809,-12.996044158935547,6.2727155685424805
1701089671975670000,8.639669921875,1.666447639465332,-10.983320236206055,1.0760226249694824
1701089671994369500,8.65836962890625,6.135534286499023,-11.547548294067383,-2.0253119468688965
1701089672013068800,8.67706884765625,6.625128269195557,-10.857207298278809,-0.8184252977371216
1701089672031768300,8.695768310546875,9.012027740478516,-8.110851287841797,-3.1842470169067383
1701089672050467600,8.714467529296876,6.319782257080078,-4.996362686157227,-1.8091553449630737
1701089672069167000,8.7331669921875,2.7838752269744873,-3.7480812072753906,-0.23430240154266357
1701089672087866400,8.751866455078124,4.221229553222656,-5.529049396514893,0.2750283479690552
1701089672106566000,8.77056591796875,2.9334959983825684,-8.216410636901855,2.476984739303589
1701089672125265200,8.78926513671875,3.0602481365203857,-9.687018394470215,2.598846435546875
1701089672143964700,8.807964599609376,4.714130878448486,-10.164648056030273,1.4017421007156372
1701089672162664000,8.826663818359375,5.9085774421691895,-9.956768989562988,-0.8537112474441528
1701089672181363200,8.84536328125,7.9768452644348145,-8.745864868164062,-1.2571028470993042
1701089672200062700,8.864062744140625,9.509493827819824,-7.7459564208984375,-0.5290693044662476
1701089672218762200,8.88276220703125,5.959245204925537,-7.1848344802856445,1.066122055053711
1701089672237461500,8.90146142578125,5.072930335998535,-6.209717750549316,0.3398902416229248
1701089672256161000,8.9201611328125,8.729963302612305,-4.967331886291504,0.314403772354126
1701089672274860300,8.9388603515625,6.292537212371826,-5.200597286224365,1.1185318231582642
1701089672293559600,8.9575595703125,3.77288818359375,-5.61494255065918,1.9106395244598389
1701089672312259000,8.976259033203124,4.064964771270752,-7.597582817077637,2.4254379272460938
1701089672330958300,8.994958251953125,-15.87706184387207,-6.403948783874512,3.9273595809936523
1701089672349657900,9.013657958984375,-51.84968185424805,7.811708450317383,-3.567403793334961
1701089672368357400,9.032357421875,-11.582796096801758,39.27345657348633,-6.815057754516602
1701089672387056600,9.051056640625,-1.8326983451843262,16.17124366760254,-0.8779191970825195
1701089672405756000,9.069755859375,-6.352620601654053,-0.31487226486206055,-0.13240504264831543
1701089672424455400,9.088455322265625,-0.30927133560180664,2.093723773956299,2.129149913787842
1701089672443154700,9.10715478515625,-7.418139934539795,7.647546291351318,-2.6045982837677
1701089672461854200,9.125854248046876,-5.505064487457275,7.795741081237793,-1.812433123588562
1701089672480553500,9.144553466796875,-3.9009485244750977,6.831621170043945,-1.4827780723571777
1701089672499253000,9.1632529296875,-4.92808198928833,7.50640869140625,-2.7798991203308105
1701089672517952300,9.1819521484375,-4.045851230621338,7.31484842300415,-2.0378236770629883
1701089672536651800,9.20065185546875,-3.2036385536193848,4.761191368103027,-0.05652356147766113
1701089672555351000,9.21935107421875,-1.619232177734375,2.270113468170166,1.450701355934143
1701089672574050600,9.238050537109375,0.37636375427246094,1.8597331047058105,2.280613899230957
1701089672592749800,9.256749755859374,0.5223860740661621,2.868856430053711,1.9978106021881104
1701089672611449300,9.275449462890625,-1.477590560913086,4.029781818389893,0.28737032413482666
1701089672630148600,9.294148681640625,-1.6852030754089355,4.562289237976074,-1.4807614088058472
1701089672648848000,9.312847900390626,-0.9767651557922363,4.32164192199707,-1.6865752935409546
1701089672667547400,9.33154736328125,-0.7951674461364746,3.976742744445801,-0.9823999404907227
1701089672686246700,9.35024658203125,-0.13005828857421875,3.4718923568725586,-0.6082005500793457
1701089672704946200,9.3689462890625,1.725076675415039,2.8972158432006836,-0.9292073249816895
1701089672723645700,9.387645751953125,2.3313064575195312,1.6162567138671875,-0.7085145711898804
1701089672742345000,9.406344970703126,1.9786772727966309,0.04718589782714844,-0.7061502933502197
1701089672761044200,9.425044189453125,-2.3382320404052734,-1.7971043586730957,0.7470299601554871
1701089672779743700,9.44374365234375,3.1990878582000732,-1.2515907287597656,-5.705446720123291
1701089672798443000,9.462443115234375,3.0557057857513428,-3.7112741470336914,-3.4918835163116455
1701089672817142500,9.481142578125,5.158603191375732,-4.39662504196167,2.4638853073120117
1701089672835841800,9.499841796875,5.913735389709473,-4.903172969818115,1.0156571865081787
1701089672854541300,9.518541259765625,-0.14385175704956055,-7.647581577301025,0.5548122525215149
1701089672873240600,9.537240478515624,-0.6124362945556641,-8.02262020111084,-0.45928454399108887
1701089672891940000,9.555940185546875,1.612248420715332,-6.0271501541137695,-0.8876715898513794
1701089672910639400,9.574639404296875,1.1479382514953613,-4.2438530921936035,-0.5547628402709961
1701089672929339000,9.5933388671875,-0.0038766860961914062,-3.3054466247558594,-0.3187829256057739
1701089672948038100,9.6120380859375,-1.101640224456787,-2.4692630767822266,0.21145474910736084
1701089672966737700,9.630737548828124,-1.477586269378662,-1.213531494140625,0.5873962640762329
1701089672985437000,9.64943701171875,-2.2370195388793945,0.0799722671508789,-0.04392886161804199
1701089673004136400,9.668136474609375,-1.9050583839416504,0.21710205078125,0.10655766725540161
1701089673022835700,9.686835693359376,-0.4867863655090332,0.5284318923950195,-0.1872553825378418
1701089673041535200,9.70553515625,-0.6045522689819336,3.8392515182495117,0.50175541639328
1701089673060234500,9.724234375,-4.855594635009766,3.2724714279174805,0.8173686861991882
1701089673078934000,9.74293408203125,-0.23762226104736328,0.8617153167724609,-1.1829363107681274
1701089673097633300,9.76163330078125,1.0934405326843262,-0.3483715057373047,-0.1472400426864624
1701089673116332800,9.780332763671876,-4.758280277252197,-0.28426551818847656,-1.8036597967147827
1701089673135032000,9.799031982421875,3.6900928020477295,0.3276338577270508,-0.948944091796875
1701089673153731300,9.8177314453125,3.0786843299865723,-1.0790653228759766,-1.817525863647461
1701089673172430800,9.836430908203125,2.4752888679504395,-1.8947458267211914,0.29325366020202637
1701089673191130400,9.85513037109375,-0.37656497955322266,0.661707878112793,-0.6323819160461426
1701089673209829600,9.87382958984375,-3.007554531097412,1.5302228927612305,1.3795607089996338
1701089673228529200,9.892529052734375,-3.1061058044433594,0.3705940246582031,2.181990623474121
1701089673247228400,9.911228515625,-0.5864381790161133,-0.30493927001953125,0.47256791591644287
1701089673265927700,9.929927734375,-0.33475470542907715,0.23877239227294922,-0.10595476627349854
1701089673284627200,9.948627197265624,0.458843469619751,-0.10157012939453125,0.7487925887107849
1701089673303326500,9.967326416015625,0.8844175338745117,-0.7760334014892578,2.0697951316833496
1701089673322026000,9.98602587890625,-0.7845759391784668,0.5856180191040039,-0.6015491485595703
1701089673340725500,10.0047255859375,-3.415463447570801,2.082517623901367,0.2954474687576294
1701089673359424800,10.0234248046875,1.0611438751220703,0.3576698303222656,0.4049040675163269
1701089673378124000,10.0421240234375,1.5725090503692627,-0.24004745483398438,0.3853294849395752
1701089673396823600,10.060823486328125,-0.6898462772369385,-0.7417211532592773,1.0638458728790283
1701089673415522800,10.079522705078125,-1.8347032070159912,-0.626002311706543,1.5157651901245117
1701089673434222300,10.098222412109376,0.37837719917297363,0.14857196807861328,1.4695017337799072
1701089673452921600,10.116921630859375,1.3492538928985596,0.8024663925170898,0.6741908192634583
1701089673471621000,10.13562109375,0.4243648052215576,0.9940919876098633,0.01817798614501953
1701089673490320400,10.1543203125,1.384082317352295,0.7973794937133789,-0.08653497695922852
1701089673509020000,10.17302001953125,2.602663516998291,1.1357498168945312,0.29537665843963623
1701089673527719200,10.19171923828125,-0.11331748962402344,1.875284194946289,0.5079776644706726
1701089673546418700,10.210418701171875,-0.46870851516723633,0.9173202514648438,0.4299637973308563
1701089673565118000,10.229117919921874,1.2795791625976562,1.566788673400879,0.7014158368110657
1701089673583817500,10.2478173828125,3.6038291454315186,2.9833364486694336,-0.0036349892616271973
1701089673602516700,10.266516845703125,2.0012426376342773,2.2259464263916016,-0.6060209274291992
1701089673621216300,10.28521630859375,2.5547034740448,1.8317155838012695,-0.960986852645874
1701089673639915500,10.30391552734375,2.687310218811035,-0.4404420852661133,0.0173528790473938
1701089673658615000,10.322614990234374,0.39308977127075195,7.5294952392578125,-1.0137346982955933
1701089673677314300,10.341314208984375,0.8543787002563477,10.01694393157959,-1.914128065109253
1701089673696013800,10.360013916015625,0.7098262310028076,9.313209533691406,-1.7426567077636719
1701089673714713000,10.378713134765626,1.9653290510177612,2.9451894760131836,-0.8621026873588562
1701089673733412400,10.397412353515625,1.3171577453613281,-0.5877313613891602,3.1988525390625
1701089673752111900,10.41611181640625,1.377058506011963,-2.6414942741394043,2.820366859436035
1701089673770811400,10.434811279296875,0.23646926879882812,-4.862099647521973,3.364271402359009
1701089673789510700,10.4535107421875,0.5253400802612305,-6.783695697784424,2.194505214691162
1701089673808210200,10.472210205078126,-0.5202548503875732,-8.083305358886719,2.281648874282837
1701089673826909400,10.490909423828125,0.10358476638793945,-7.917733669281006,3.383058547973633
1701089673845608700,10.509608642578126,0.6118804216384888,-6.189736843109131,5.34607458114624
1701089673864308200,10.52830810546875,-1.5052934885025024,-1.9782848358154297,3.0883522033691406
1701089673883007500,10.547007568359374,0.977683424949646,-0.6180667877197266,-1.5097713470458984
1701089673901707000,10.56570703125,0.3962499797344208,-3.1558103561401367,-8.314226150512695
1701089673920406500,10.584406494140625,-1.4036543369293213,-5.7807936668396,-3.798590898513794
1701089673939105800,10.603105712890626,-3.427013874053955,-3.3522467613220215,0.77079176902771
1701089673957805000,10.62180517578125,-2.109675884246826,-0.45020294189453125,-0.7048916816711426
1701089673976504600,10.640504638671874,0.21741032600402832,-0.10059165954589844,-0.6669673919677734
1701089673995203800,10.659203857421875,1.891988754272461,0.32880496978759766,-0.22600221633911133
1701089674013903400,10.6779033203125,0.7702019214630127,0.42796993255615234,-1.5623383522033691
1701089674032602600,10.6966025390625,1.5544612407684326,-1.387627124786377,-0.1292252540588379
1701089674051302100,10.71530224609375,-1.253201961517334,-0.12486553192138672,1.2719428539276123
1701089674070001700,10.734001708984374,1.3533318042755127,1.1315336227416992,-3.0354037284851074
1701089674088701000,10.752700927734375,-0.695584774017334,2.2931370735168457,-3.563271999359131
1701089674107400200,10.771400146484375,-2.5750083923339844,2.923816680908203,0.5515236854553223
1701089674126099700,10.790099609375,1.0560898780822754,2.8975048065185547,2.484241247177124
1701089674144799000,10.808799072265625,2.1889238357543945,2.1346492767333984,1.0981106758117676
1701089674163498500,10.82749853515625,-1.750382900238037,0.35822296142578125,-1.4497606754302979
1701089674182197800,10.84619775390625,-3.1766605377197266,0.262847900390625,-3.044346332550049
1701089674200897300,10.864897216796875,-0.2047119140625,0.856083869934082,-2.597846031188965
1701089674219596500,10.883596435546876,2.761241912841797,-0.09631919860839844,-0.8311909437179565
1701089674238296000,10.902296142578125,3.8237619400024414,-0.1396632194519043,2.1085376739501953
1701089674256995300,10.920995361328124,2.841118812561035,-0.48936891555786133,4.679895401000977
1701089674275694800,10.93969482421875,1.578653335571289,-0.7900805473327637,4.821672439575195
1701089674294394000,10.95839404296875,0.3101634979248047,-0.15249061584472656,1.7394005060195923
1701089674313093600,10.97709375,-0.8789548873901367,0.5756707191467285,-0.00044905394315719604
1701089674331793000,10.99579296875,-0.7546863555908203,0.6579883098602295,0.31867462396621704
1701089674350492400,11.014492431640624,0.14929771423339844,1.286590814590454,1.112479329109192
1701089674369191700,11.033191650390625,0.21973609924316406,0.6551761627197266,1.036717414855957
1701089674387891200,11.05189111328125,-0.011485099792480469,0.02792835235595703,0.8447858095169067
1701089674406590500,11.070590576171876,-0.02949237823486328,-0.24202847480773926,0.6399029493331909
1701089674425290000,11.0892900390625,0.2348499298095703,-0.2641890048980713,0.6907334327697754
1701089674443989200,11.1079892578125,0.28331947326660156,-0.1702885627746582,0.7573471069335938
1701089674462688500,11.1266884765625,-0.11456012725830078,-0.22054266929626465,-0.04834747314453125
1701089674481388000,11.145387939453125,-0.6625823974609375,-0.3267993927001953,-0.31695422530174255
1701089674500087600,11.164087646484376,-1.1330952644348145,-0.0758199691772461,-0.15236049890518188
1701089674518786800,11.182786865234375,-1.791123390197754,-0.10254764556884766,-0.09195077419281006
1701089674537486300,11.201486328125,-1.7793264389038086,-0.05848979949951172,-0.03294047713279724
1701089674556185600,11.220185546875,-1.2216157913208008,-0.19776415824890137,0.293689489364624
1701089674574884900,11.238884765625,-0.4883842468261719,-0.23250699043273926,0.9161509275436401
1701089674593584400,11.25758447265625,0.4808473587036133,-0.20251059532165527,0.5890260934829712
1701089674612283600,11.27628369140625,0.7327775955200195,-0.1363391876220703,-0.10879901051521301
1701089674630983200,11.294983154296874,0.17270946502685547,-0.20949912071228027,0.2627626955509186
1701089674649682700,11.3136826171875,-0.03021240234375,-0.34995079040527344,0.9602571725845337
1701089674668382000,11.3323818359375,0.525507926940918,-0.25496983528137207,0.4289814829826355
1701089674687081200,11.351081298828126,0.5483064651489258,-0.17794489860534668,-0.19683897495269775
1701089674705780700,11.36978076171875,0.19436931610107422,-0.13242101669311523,-0.15991319715976715
1701089674724480000,11.38847998046875,0.2612590789794922,-0.25449037551879883,0.24754494428634644
1701089674743179500,11.407179443359375,0.5355348587036133,0.01815938949584961,0.08953548222780228
1701089674761879000,11.425879150390625,0.11046218872070312,0.002991199493408203,-0.10318347811698914
1701089674780578300,11.444578369140626,-0.39723873138427734,-0.3258240222930908,0.4474572241306305
1701089674799277600,11.463277587890625,1.404031753540039,0.3355379104614258,0.6925326585769653
1701089674817977000,11.48197705078125,-1.0425214767456055,-0.4062061309814453,-0.35751640796661377
1701089674836676400,11.50067626953125,-2.0045814514160156,-0.22936487197875977,-0.7929145097732544
1701089674855376000,11.5193759765625,-0.9687232971191406,0.19552302360534668,-0.2891208529472351
1701089674874075100,11.5380751953125,0.06742572784423828,0.6023986339569092,-0.4453366994857788
