time,seconds_elapsed,z,y,x
1701089663384390000,0.048389892578125,7.135396957397461,5.4628143310546875,4.405186653137207
1701089663403089200,0.067089111328125,7.020541667938232,5.5106706619262695,4.417150497436523
1701089663421788700,0.08578857421875,7.142575740814209,5.5034918785095215,4.216153621673584
1701089663440488200,0.10448828125,7.334001541137695,5.402993679046631,4.125226020812988
1701089663459187500,0.1231875,7.369893550872803,5.221138954162598,4.225724697113037
1701089663477886700,0.14188671875,7.436892986297607,5.077569484710693,4.357329845428467
1701089663496586200,0.160586181640625,7.568498134613037,5.079962253570557,4.4961137771606445
1701089663515285800,0.17928564453125,7.645068168640137,5.161318302154541,4.651647090911865
1701089663533985000,0.197985107421875,7.707281589508057,5.197210788726807,4.697110652923584
1701089663552684500,0.2166845703125,7.625925540924072,4.902893543243408,4.668396949768066
1701089663571383800,0.2353837890625,7.716853141784668,4.890929698944092,4.694717884063721
1701089663590083300,0.254083251953125,7.601997375488281,5.079962253570557,4.5822553634643555
1701089663608782600,0.272782470703125,7.322037220001221,5.182853698730469,4.481756687164307
1701089663627482000,0.291482177734375,8.671588897705078,5.857629776000977,4.1036906242370605
1701089663646181400,0.310181396484375,7.0301127433776855,5.347958564758301,4.369294166564941
1701089663664881000,0.328880859375,6.553941249847412,5.54177713394165,4.390829563140869
1701089663683580200,0.347580078125,6.57547664642334,5.000999450683594,5.757131099700928
1701089663702279700,0.36627978515625,4.323830604553223,5.163711071014404,6.963113784790039
1701089663720979000,0.38497900390625,4.419543266296387,5.764309883117676,7.192824840545654
1701089663739678500,0.403678466796875,6.448657035827637,5.848058700561523,8.09252643585205
1701089663758378000,0.4223779296875,6.7070817947387695,7.35314416885376,8.511270523071289
1701089663777077200,0.4410771484375,6.190232276916504,8.267202377319336,7.664210796356201
1701089663795776500,0.459776611328125,5.19242525100708,6.941578388214111,7.405786037445068
1701089663814476000,0.47847607421875,3.1178479194641113,6.766902446746826,6.975078105926514
1701089663833175600,0.497175537109375,1.4572290182113647,7.037291526794434,7.288537979125977
1701089663851874800,0.515874755859375,0.01196411345154047,6.898507595062256,5.994020938873291
1701089663870574300,0.53457421875,0.698704183101654,6.5252275466918945,3.7160534858703613
1701089663889273600,0.553273681640625,1.495514154434204,6.915257453918457,4.8574299812316895
1701089663907973000,0.57197314453125,1.5601203441619873,6.668796539306641,6.4941205978393555
1701089663926672400,0.59067236328125,0.8303094506263733,5.989234924316406,7.587640762329102
1701089663945372000,0.609371826171875,0.9906286001205444,5.843272686004639,7.221538543701172
1701089663964071400,0.628071533203125,1.1461620330810547,6.642475605010986,4.692325115203857
1701089663982770700,0.646770751953125,0.4785645306110382,7.922635555267334,4.180261135101318
1701089664001470000,0.665469970703125,-0.06699903309345245,8.283951759338379,5.517848968505859
1701089664020169500,0.68416943359375,1.0336993932724,7.671389579772949,5.340780258178711
1701089664038869000,0.702868896484375,1.4189438819885254,7.530212879180908,4.046263217926025
1701089664057568300,0.721568359375,0.5814558863639832,8.415556907653809,3.735196113586426
1701089664076267800,0.740267822265625,-1.0791629552841187,8.48016357421875,5.551348686218262
1701089664094967000,0.758967041015625,-1.062413215637207,7.841279983520508,5.3455657958984375
1701089664113666600,0.77766650390625,-0.05503492057323456,7.788637638092041,5.027320384979248
1701089664132365800,0.79636572265625,0.5264210104942322,8.00638484954834,6.819544315338135
1701089664151065300,0.8150654296875,0.32542386651039124,8.226524353027344,8.3629150390625
1701089664169764600,0.8337646484375,0.059820566326379776,8.054241180419922,8.300702095031738
1701089664188464000,0.852464111328125,0.4570291340351105,8.140382766723633,5.864808082580566
1701089664207163400,0.871163330078125,0.38285163044929504,8.726624488830566,4.898108005523682
1701089664225863000,0.88986279296875,0.6029912829399109,8.999405860900879,5.106283664703369
1701089664244562200,0.908562255859375,0.760917603969574,8.824729919433594,5.5728840827941895
1701089664263261700,0.92726171875,0.6915257573127747,8.592626571655273,3.924229145050049
1701089664281961200,0.945961181640625,-0.638883650302887,9.248259544372559,2.8833513259887695
1701089664300660500,0.964660400390625,-1.4883357286453247,9.722038269042969,4.168296813964844
1701089664319359700,0.98335986328125,-1.6821542978286743,9.379864692687988,5.489135265350342
1701089664338059300,1.002059326171875,-1.306481122970581,9.154939651489258,4.642076015472412
1701089664356758800,1.0207587890625,-0.8135597109794617,9.123832702636719,1.8640087842941284
1701089664375458000,1.0394580078125,-0.3397808074951172,9.135796546936035,0.04307080805301666
1701089664394157600,1.058157470703125,-1.1748759746551514,8.24566650390625,1.4117653369903564
1701089664412856800,1.07685693359375,-2.770888566970825,8.2695951461792,3.895515203475952
1701089664431556400,1.095556396484375,-1.423729419708252,9.107083320617676,5.257031440734863
1701089664450255600,1.114255615234375,-0.19381862878799438,9.29611587524414,3.0412776470184326
1701089664468955100,1.132955078125,-1.0241280794143677,8.446663856506348,2.383251428604126
1701089664487654400,1.151654296875,-1.5720844268798828,8.508877754211426,0.8997012972831726
1701089664506354000,1.17035400390625,-2.335394859313965,8.752944946289062,-0.16749759018421173
1701089664525053200,1.18905322265625,-3.1034910678863525,8.563912391662598,2.825923442840576
1701089664543752700,1.207752685546875,-3.9146578311920166,8.236095428466797,3.6299118995666504
1701089664562452000,1.226451904296875,-3.5916268825531006,8.72183895111084,3.3379876613616943
1701089664581151500,1.2451513671875,-2.1296122074127197,8.994620323181152,4.019941806793213
1701089664599851000,1.26385107421875,-2.586641311645508,9.401400566101074,4.362115859985352
1701089664618550300,1.28255029296875,-3.25663161277771,9.645467758178711,3.634697675704956
1701089664637249500,1.30124951171875,-2.6464617252349854,9.494720458984375,1.6319050788879395
1701089664655949000,1.319948974609375,-2.280359983444214,9.834501266479492,0.14835500717163086
1701089664674648600,1.338648681640625,-1.765903115272522,9.81535816192627,1.0767701864242554
1701089664693347800,1.357347900390625,-1.100698471069336,9.65503978729248,3.4121651649475098
1701089664712047400,1.37604736328125,-1.9573289155960083,9.363115310668945,4.342973232269287
1701089664730746600,1.39474658203125,-2.63449764251709,9.463613510131836,2.132004976272583
1701089664749446100,1.413446044921875,-3.3954153060913086,8.791230201721191,2.754138946533203
1701089664768145400,1.4321455078125,-3.586841106414795,9.698110580444336,1.6534404754638672
1701089664786845000,1.450844970703125,-3.218346357345581,9.784252166748047,1.4117653369903564
1701089664805544200,1.469544189453125,-3.012563705444336,9.681360244750977,1.8544375896453857
1701089664824243700,1.48824365234375,-1.5409778356552124,9.382257461547852,2.9072794914245605
1701089664842943000,1.50694287109375,-1.7611174583435059,9.461220741271973,2.337787628173828
1701089664861642500,1.525642578125,-1.2993026971817017,8.934800148010254,2.390429735183716
1701089664880342000,1.544342041015625,-1.1054840087890625,8.874979019165039,1.5242279767990112
1701089664899041300,1.563041259765625,-1.8185452222824097,8.903693199157715,1.4213366508483887
1701089664917740500,1.581740478515625,-1.1054840087890625,8.566305160522461,1.5385849475860596
1701089664936440000,1.600440185546875,-0.20338992774486542,8.652446746826172,2.139183521270752
1701089664955139600,1.6191396484375,-0.8159525394439697,9.607182502746582,1.3160524368286133
1701089664973838800,1.6378388671875,-1.4093725681304932,9.767501831054688,1.5649060010910034
1701089664992538400,1.656538330078125,0.08374879509210587,9.028120040893555,1.1772687435150146
1701089665011237600,1.675237548828125,0.4833501875400543,8.353343963623047,1.7515461444854736
1701089665029937200,1.693937255859375,0.2273181527853012,7.936992645263672,1.3950155973434448
1701089665048636400,1.712636474609375,0.397208571434021,7.546962738037109,0.8566305041313171
1701089665067336000,1.7313359375,0.7226324677467346,7.247859954833984,0.14835500717163086
1701089665086035200,1.75003515625,0.47617170214653015,7.29093074798584,0.3900300860404968
1701089665104734700,1.768734619140625,-0.038285162299871445,7.738388538360596,0.6819544434547424
1701089665123434000,1.78743408203125,-0.42352959513664246,8.154739379882812,0.42831525206565857
1701089665142133500,1.806133544921875,-0.6604190468788147,8.688339233398438,0.30149564146995544
1701089665160832800,1.824832763671875,-0.7369893789291382,8.72901725769043,0.15553347766399384
1701089665179532300,1.8435322265625,-0.19621145725250244,8.147561073303223,0.09571290761232376
1701089665198231800,1.862231689453125,-0.27756741642951965,8.549555778503418,0.41156548261642456
1701089665216931000,1.88093115234375,-0.04546362906694412,8.870193481445312,0.8638089895248413
1701089665235630600,1.899630615234375,0.8422735929489136,8.870193481445312,0.8973084688186646
1701089665254329900,1.918329833984375,1.7635103464126587,9.293723106384277,0.914058268070221
1701089665273029400,1.937029296875,1.275374412536621,9.80817985534668,0.7417750358581543
1701089665291728600,1.955728759765625,2.778067111968994,10.1814603805542,1.612762451171875
1701089665310428200,1.97442822265625,1.674975872039795,10.083354949951172,0.7202396392822266
1701089665329127400,1.99312744140625,1.5385849475860596,10.25324535369873,0.7992027401924133
1701089665347827000,2.011826904296875,0.851844847202301,10.1216402053833,0.5862415432929993
1701089665366526200,2.030526123046875,0.5264210104942322,11.322836875915527,0.1459621787071228
1701089665385225700,2.049225830078125,0.26560330390930176,12.8087797164917,-0.9355936646461487
1701089665403925000,2.067925048828125,-0.08614161610603333,12.619746208190918,0.19381862878799438
1701089665422624500,2.08662451171875,0.05503492057323456,12.586247444152832,-0.22971096634864807
1701089665441323800,2.10532373046875,0.07896314561367035,11.985648155212402,-0.21774685382843018
1701089665460023300,2.124023193359375,0.28235307335853577,11.193624496459961,-1.093519926071167
1701089665478722600,2.14272265625,0.29431718587875366,10.301101684570312,-0.6819544434547424
1701089665497422000,2.161422119140625,-0.3278166949748993,10.317851066589355,-0.550349235534668
1701089665516121600,2.18012158203125,-1.28255295753479,10.604990005493164,-1.552941918373108
1701089665534820900,2.19882080078125,-1.246660590171814,10.595418930053711,-1.2729816436767578
1701089665553520000,2.21752001953125,-1.337587833404541,10.207781791687012,-0.9068797826766968
1701089665572219600,2.2362197265625,-1.3567304611206055,9.602396965026855,-1.337587833404541
1701089665590919200,2.254919189453125,-1.9453648328781128,10.169496536254883,-1.0959128141403198
1701089665609618400,2.273618408203125,-2.2707886695861816,11.586047172546387,-1.4691931009292603
1701089665628318000,2.29231787109375,-2.1343977451324463,10.901700019836426,-1.423729419708252
1701089665647017200,2.311017333984375,-1.9453648328781128,9.765109062194824,-1.430907964706421
1701089665665716700,2.329716796875,-1.9764715433120728,9.265008926391602,-1.545763373374939
1701089665684416000,2.348416015625,-1.6582261323928833,9.300901412963867,-2.7086751461029053
1701089665703115500,2.367115478515625,-1.7252250909805298,9.736394882202148,-1.2705888748168945
1701089665721814800,2.385814697265625,-3.13220477104187,9.93260669708252,-2.0482561588287354
1701089665740514300,2.404514404296875,-3.9696927070617676,10.169496536254883,-2.084148406982422
1701089665759213600,2.423213623046875,-3.562912940979004,9.743574142456055,-2.3569302558898926
1701089665777913000,2.4419130859375,-3.105883836746216,9.4061861038208,-2.117648124694824
1701089665796612400,2.4606123046875,-2.9623143672943115,9.44447135925293,-2.383251428604126
1701089665815312000,2.479311767578125,-3.005385160446167,8.817551612854004,-1.8759729862213135
1701089665834011400,2.498011474609375,-2.100898265838623,8.532805442810059,-1.9956140518188477
1701089665852710700,2.516710693359375,-2.60339093208313,9.190832138061523,-2.00518536567688
1701089665871410000,2.535409912109375,-2.5938198566436768,9.518648147583008,-1.770688772201538
1701089665890109400,2.554109375,-2.912065267562866,9.68375301361084,-1.801795482635498
1701089665908808700,2.57280859375,-3.3020951747894287,9.774680137634277,-1.7682958841323853
1701089665927508200,2.59150830078125,-3.5748770236968994,9.54496955871582,-2.1272194385528564
1701089665946207500,2.61020751953125,-3.105883836746216,8.855836868286133,-1.2634103298187256
1701089665964907000,2.628906982421875,-2.7876384258270264,8.556734085083008,-1.3471591472625732
1701089665983606500,2.6476064453125,-3.493520975112915,9.521040916442871,-2.1200408935546875
1701089666002305800,2.666305908203125,-3.3547372817993164,9.645467758178711,-1.7084753513336182
1701089666021005300,2.68500537109375,-3.34995174407959,9.049654960632324,-1.4189438819885254
1701089666039704600,2.70370458984375,-4.302295207977295,9.834501266479492,-1.5242279767990112
1701089666058404000,2.722404052734375,-4.323830604553223,9.827322959899902,-1.852044701576233
1701089666077103400,2.741103271484375,-4.015156269073486,9.499505996704102,-1.2945170402526855
1701089666095803000,2.759802978515625,-3.493520975112915,9.116654396057129,-0.5455635786056519
1701089666114502100,2.778502197265625,-4.417150497436523,8.8438720703125,-1.8735800981521606
1701089666133201700,2.79720166015625,-4.371686935424805,7.944170951843262,-1.8376877307891846
1701089666151901200,2.815901123046875,-4.180261135101318,6.967899322509766,-1.038485050201416
1701089666170600400,2.834600341796875,-4.9052863121032715,8.149953842163086,-0.5551348328590393
1701089666189299700,2.8532998046875,-4.9435715675354,8.475378036499023,-1.2969099283218384
1701089666207999200,2.871999267578125,-4.831109046936035,9.554540634155273,-1.6510475873947144
1701089666226698500,2.890698486328125,-5.077569484710693,9.719645500183105,-4.187439441680908
1701089666245398000,2.90939794921875,-3.6227335929870605,8.94676399230957,-0.4833501875400543
1701089666264097500,2.92809765625,-3.862015724182129,8.937192916870117,-0.24646073579788208
1701089666282796800,2.946796875,-4.493721008300781,9.982855796813965,-1.5409778356552124
1701089666301496300,2.965496337890625,-4.9531426429748535,9.016156196594238,-3.0484559535980225
1701089666320195600,2.984195556640625,-5.103890895843506,8.999405860900879,-2.8043880462646484
1701089666338895000,3.00289501953125,-4.517649173736572,9.839286804199219,-1.7778671979904175
1701089666357594400,3.021594482421875,-3.8045880794525146,10.29870891571045,-2.2372891902923584
1701089666376294000,3.0402939453125,-3.3619158267974854,10.068997383117676,-2.1774685382843018
1701089666394993200,3.0589931640625,-3.2685956954956055,9.580862045288086,-1.1222338676452637
1701089666413692700,3.077692626953125,-3.7256247997283936,8.774480819702148,-1.7276179790496826
1701089666432392000,3.096391845703125,-3.9840497970581055,9.415757179260254,-2.038684844970703
1701089666451091500,3.115091552734375,-4.603790760040283,11.550154685974121,-4.34536600112915
1701089666469790700,3.133790771484375,-4.457828521728516,11.980862617492676,-3.933800458908081
1701089666488490200,3.152490234375,-3.2685956954956055,11.935399055480957,-2.5674986839294434
1701089666507189500,3.171189453125,-2.139183521270752,10.40638542175293,-2.1296122074127197
1701089666525889000,3.189888916015625,-1.9381862878799438,9.623932838439941,-1.5002998113632202
1701089666544588300,3.20858837890625,-1.9142581224441528,8.93958568572998,-0.7800601720809937
1701089666563287800,3.227287841796875,-2.108076810836792,9.28893756866455,-1.5936198234558105
1701089666581987300,3.2459873046875,-2.1415762901306152,10.013962745666504,-1.4620146751403809
1701089666600686600,3.2646865234375,-1.337587833404541,8.781659126281738,0.5264210104942322
1701089666619385900,3.2833857421875,-1.5026925802230835,7.278966426849365,-0.22971096634864807
1701089666638085400,3.30208544921875,-1.8400806188583374,6.52044153213501,-2.2396819591522217
1701089666656785000,3.320784912109375,-2.6297121047973633,4.9363932609558105,-2.2851455211639404
1701089666675484200,3.339484130859375,-2.0027925968170166,4.625326156616211,-0.9044869542121887
1701089666694183700,3.35818359375,-2.225325107574463,6.238088607788086,-0.43549370765686035
1701089666712883000,3.376883056640625,-3.0939197540283203,7.585247993469238,-0.1866401731967926
1701089666731582500,3.39558251953125,-3.460021495819092,6.56829833984375,-1.3351950645446777
1701089666750281700,3.41428173828125,-3.85483717918396,4.7952165603637695,-0.6029912829399109
1701089666768981200,3.432981201171875,-4.311866283416748,6.0777692794799805,1.5026925802230835
1701089666787680500,3.451680419921875,-5.575276851654053,7.022934436798096,0.729810893535614
1701089666806380000,3.470380126953125,-7.269395351409912,7.085147857666016,-1.2131611108779907
1701089666825079300,3.489079345703125,-7.635497093200684,7.843672752380371,-2.0578274726867676
1701089666843778800,3.50777880859375,-10.99741268157959,14.024333953857422,-3.098705291748047
1701089666862478000,3.52647802734375,-8.111668586730957,10.837093353271484,1.31365966796875
1701089666881177600,3.545177490234375,-6.733402729034424,8.73619556427002,1.7874385118484497
1701089666899877000,3.563877197265625,-7.64028263092041,7.336394309997559,-0.34217363595962524
1701089666918576400,3.582576416015625,-6.912864685058594,6.975078105926514,0.36610186100006104
1701089666937276000,3.60127587890625,-5.024927616119385,8.322237014770508,0.45942193269729614
1701089666955975200,3.61997509765625,-4.457828521728516,10.683953285217285,1.0839486122131348
1701089666974674700,3.6386748046875,-5.0225348472595215,9.767501831054688,-0.7824530005455017
1701089666993374000,3.6573740234375,-6.664011001586914,9.011369705200195,-0.5527420043945312
1701089667012073500,3.676073486328125,-6.259624004364014,8.764909744262695,1.3543375730514526
1701089667030772700,3.694772705078125,-6.795616149902344,6.080162525177002,0.7034898400306702
1701089667049472300,3.71347216796875,-7.8077802658081055,5.6925249099731445,-1.2370892763137817
1701089667068171500,3.732171630859375,-9.078369140625,9.415757179260254,-1.6869399547576904
1701089667086871000,3.75087109375,-8.166703224182129,9.389435768127441,0.08374879509210587
1701089667105570300,3.7695703125,-6.9104719161987305,7.338787078857422,0.02153540402650833
1701089667124269800,3.788269775390625,-5.548955917358398,6.726224422454834,1.7467604875564575
1701089667142969000,3.806968994140625,-3.507878065109253,6.5491557121276855,2.4526431560516357
1701089667161668600,3.825668701171875,-2.885744094848633,5.615954875946045,-1.2945170402526855
1701089667180368000,3.844367919921875,-2.706282377243042,7.568498134613037,-1.6247265338897705
1701089667199067400,3.8630673828125,-4.649254322052002,15.409777641296387,0.47617170214653015
1701089667217767000,3.881766845703125,-4.409972190856934,12.89492130279541,0
1701089667236466200,3.900466064453125,-3.656233072280884,8.549555778503418,1.368694543838501
1701089667255165400,3.91916552734375,-3.4025938510894775,6.10169792175293,0.7728816866874695
1701089667273865000,3.937864990234375,-2.9766714572906494,6.948757171630859,-1.825723648071289
1701089667292564500,3.956564453125,-3.2231321334838867,10.487741470336914,0.4977070987224579
1701089667311263700,3.975263671875,-2.933600664138794,11.7056884765625,-0.9595218896865845
1701089667329963300,3.99396337890625,-1.0217353105545044,7.04207706451416,1.4644074440002441
1701089667348662500,4.01266259765625,-1.0169496536254883,6.714260101318359,0.016749758273363113
1701089667367362000,4.031362060546875,-1.2610175609588623,9.623932838439941,-1.4117653369903564
1701089667386061300,4.050061279296875,-1.2418749332427979,10.738987922668457,-0.0023928226437419653
1701089667404760800,4.0687607421875,-0.9379864931106567,9.90149974822998,1.765903115272522
1701089667423460000,4.087460205078125,0.16031911969184875,8.528019905090332,1.550549030303955
1701089667442159600,4.10615966796875,0.38285163044929504,7.491927623748779,-0.20817556977272034
1701089667460859000,4.12485888671875,-1.581655740737915,8.709874153137207,-0.7992027401924133
1701089667479558400,4.143558349609375,-1.7204394340515137,10.277173042297363,0.9284151792526245
1701089667498257700,4.162257568359375,-0.02632104977965355,10.660024642944336,1.8448662757873535
1701089667516957200,4.180957275390625,-2.510071039199829,9.422935485839844,-1.4333007335662842
1701089667535656400,4.199656494140625,-4.852644443511963,11.152946472167969,-2.390429735183716
1701089667554356000,4.21835595703125,-3.4504501819610596,11.777473449707031,-0.3900300860404968
1701089667573055200,4.23705517578125,-0.5072783827781677,9.511469841003418,1.3351950645446777
1701089667591754800,4.255754638671875,1.5098711252212524,8.774480819702148,1.0336993932724
1701089667610454000,4.2744541015625,-1.4715858697891235,8.365307807922363,-1.521835207939148
1701089667629153500,4.293153564453125,-2.7110681533813477,9.157332420349121,-0.9403793215751648
1701089667647853000,4.31185302734375,-3.7974095344543457,10.068997383117676,-1.856830358505249
1701089667666552300,4.33055224609375,-1.9310078620910645,11.763115882873535,-2.0721843242645264
1701089667685251800,4.349251953125,0.5216353535652161,12.196216583251953,-2.0650060176849365
1701089667703951000,4.367951171875,2.124826431274414,8.360522270202637,-0.45224347710609436
1701089667722650400,4.386650390625,-1.4644074440002441,9.154939651489258,-1.7012969255447388
1701089667741350000,4.405349853515625,-3.926621913909912,11.562119483947754,-1.2370892763137817
1701089667760049400,4.42404931640625,-4.074976921081543,9.592825889587402,-2.0410776138305664
1701089667778748700,4.442748779296875,-0.8542376756668091,6.5491557121276855,-0.36610186100006104
1701089667797448200,4.4614482421875,-0.19142581522464752,6.546762943267822,-0.2273181527853012
1701089667816147500,4.4801474609375,-3.376272678375244,7.420143127441406,0.014356935396790504
1701089667834847000,4.498846923828125,-4.426722049713135,10.140782356262207,-0.8063812255859375
1701089667853546200,4.517546142578125,-5.056034088134766,14.629717826843262,-0.882951557636261
1701089667872245800,4.536245849609375,-3.2350962162017822,13.74915885925293,-0.5910272002220154
1701089667890945000,4.554945068359375,-2.5435705184936523,11.44965648651123,-2.328216314315796
1701089667909644500,4.57364453125,-1.0791629552841187,9.028120040893555,-1.1629117727279663
1701089667928343800,4.59234375,-0.13160525262355804,5.6590256690979,0.15314064919948578
1701089667947043300,4.611043212890625,-0.8087740540504456,6.32662296295166,-0.8685946464538574
1701089667965742600,4.62974267578125,-2.7014968395233154,9.487542152404785,-1.8855443000793457
1701089667984442000,4.648442138671875,-2.3306093215942383,9.958928108215332,-1.550549030303955
1701089668003141600,4.6671416015625,-2.4119651317596436,10.573883056640625,-1.222732424736023
1701089668021841000,4.6858408203125,-3.1417760848999023,11.875578880310059,-1.1940184831619263
1701089668040540200,4.7045400390625,-4.275974273681641,12.009576797485352,-0.8303094506263733
1701089668059239700,4.72323974609375,-3.3714871406555176,11.033305168151855,0.6101697683334351
1701089668077939000,4.74193896484375,-1.1174482107162476,8.599804878234863,0.39481574296951294
1701089668096638500,4.760638427734375,-2.084148406982422,7.987242221832275,0.5144568681716919
1701089668115338000,4.779337890625,-3.3619158267974854,9.020941734313965,-1.490728497505188
1701089668134037200,4.798037353515625,-1.6606189012527466,9.937392234802246,-1.9453648328781128
1701089668152736800,4.81673681640625,0.6556333899497986,11.229516983032227,-1.8807586431503296
1701089668171436000,4.83543603515625,0.9667003750801086,11.01416301727295,-2.730210542678833
1701089668190135600,4.854135498046875,0.7920243144035339,11.176874160766602,-2.5076780319213867
1701089668208834800,4.872834716796875,-0.8566305041313171,11.593225479125977,-1.6223337650299072
1701089668227534300,4.891534423828125,-1.552941918373108,8.398807525634766,0.22013968229293823
1701089668246233600,4.910233642578125,-2.0817556381225586,6.618547439575195,-0.363709032535553
1701089668264933000,4.92893310546875,-2.038684844970703,10.389636039733887,-0.8374879360198975
1701089668283632400,4.94763232421875,-0.4977070987224579,11.736795425415039,-1.770688772201538
1701089668302332000,4.966331787109375,0.6628118753433228,9.09990406036377,-1.8472590446472168
1701089668321031400,4.985031494140625,-0.07417750358581543,7.779066562652588,-3.955335855484009
1701089668339730700,5.003730712890625,-1.2179467678070068,8.02791976928711,-4.0079779624938965
1701089668358430000,5.022429931640625,-1.2634103298187256,9.040083885192871,-3.0077781677246094
1701089668377129500,5.04112939453125,0.30628129839897156,7.680960655212402,-1.6175481081008911
1701089668395829000,5.0598291015625,0.02871387079358101,7.073183536529541,-1.031306505203247
1701089668414528300,5.0785283203125,-0.13639089465141296,8.422736167907715,1.6845471858978271
1701089668433227800,5.097227783203125,-1.5649060010910034,10.313065528869629,2.4765713214874268
1701089668451927000,5.115927001953125,-3.5533416271209717,10.688738822937012,2.062613010406494
1701089668470626600,5.13462646484375,-5.493920803070068,11.531012535095215,1.3088740110397339
1701089668489325800,5.153325927734375,-6.16391134262085,10.13599681854248,0.02871387079358101
1701089668508025300,5.172025390625,-3.342773199081421,1.0719845294952393,-0.9403793215751648
1701089668526724600,5.190724609375,-2.8905298709869385,7.6043901443481445,-0.1052841991186142
1701089668545424100,5.209424072265625,-2.0745773315429688,9.607182502746582,2.6488547325134277
1701089668564123400,5.228123291015625,-4.039084434509277,12.504891395568848,4.06540584564209
1701089668582823000,5.246822998046875,-2.203789710998535,10.985448837280273,4.989035129547119
1701089668601522200,5.265522216796875,-0.6508477330207825,8.161917686462402,2.8139593601226807
1701089668620221700,5.2842216796875,-0.8422735929489136,10.466206550598145,0.1459621787071228
1701089668638921200,5.302921142578125,-2.084148406982422,9.174081802368164,-2.258824586868286
1701089668657620500,5.321620361328125,-2.4023938179016113,8.908478736877441,-3.589233875274658
1701089668676319700,5.34031982421875,-0.2105683982372284,7.793423175811768,-1.7539390325546265
1701089668695019300,5.359019287109375,1.588834285736084,9.8871431350708,-1.222732424736023
1701089668713718500,5.377718505859375,-0.9906286001205444,9.355937004089355,-0.5599204897880554
1701089668732418000,5.39641796875,-4.431507587432861,12.720245361328125,-0.32542386651039124
1701089668751117600,5.41511767578125,-2.4263222217559814,10.112068176269531,0.2967100143432617
1701089668769816800,5.43381689453125,-1.093519926071167,9.975677490234375,0.8973084688186646
1701089668788516000,5.45251611328125,-0.5359922647476196,9.944570541381836,-0.08374879509210587
1701089668807215600,5.471215576171875,-0.13639089465141296,8.635697364807129,-0.7178468108177185
1701089668825915100,5.4899150390625,-1.2490534782409668,7.776673793792725,-1.6630117893218994
1701089668844614400,5.508614501953125,-0.41156548261642456,8.451449394226074,-3.6442689895629883
1701089668863314000,5.52731396484375,0.48574298620224,10.657631874084473,-4.926821708679199
1701089668882013200,5.54601318359375,2.344966173171997,12.88056468963623,-4.704289436340332
1701089668900712400,5.56471240234375,-2.5196423530578613,14.758930206298828,-2.306680917739868
1701089668919412000,5.583411865234375,-3.649054527282715,13.34716510772705,-1.5936198234558105
1701089668938111200,5.602111328125,-3.4719855785369873,11.940184593200684,0.5958128571510315
1701089668956810800,5.620810791015625,-2.3401806354522705,9.693324089050293,0.8159525394439697
1701089668975510300,5.63951025390625,-1.074377417564392,7.267002582550049,2.919243574142456
1701089668994209500,5.65820947265625,1.2801600694656372,6.843472957611084,0.7704889178276062
1701089669012908800,5.67690869140625,-0.44027936458587646,9.339186668395996,-1.954936146736145
1701089669031608300,5.6956083984375,-3.211168050765991,8.209774017333984,6.058627128601074
1701089669050307600,5.7143076171875,-3.7974095344543457,7.204789161682129,4.843072891235352
1701089669069007000,5.733007080078125,-6.1399827003479,8.312665939331055,-0.8614161610603333
1701089669087706600,5.75170654296875,-7.142575740814209,9.040083885192871,-1.672582983970642
1701089669106406000,5.770406005859375,-7.259823799133301,9.236295700073242,-1.6606189012527466
1701089669125105200,5.789105224609375,-6.446264266967773,9.93260669708252,-1.6510475873947144
1701089669143804700,5.8078046875,-5.680561065673828,9.506684303283691,-1.3519448041915894
1701089669162504000,5.82650390625,-5.613562107086182,8.96112060546875,-1.2681959867477417
1701089669181203500,5.845203369140625,-4.934000492095947,8.417949676513672,-1.0097711086273193
1701089669199903000,5.863903076171875,-3.9601213932037354,8.571090698242188,-1.3088740110397339
1701089669218602200,5.882602294921875,-4.118047714233398,8.453842163085938,-0.8159525394439697
1701089669237301500,5.901301513671875,-4.902893543243408,8.2695951461792,-0.17946170270442963
1701089669256001000,5.9200009765625,-4.926821708679199,8.02791976928711,0.2225325107574463
1701089669274700300,5.9387001953125,-4.417150497436523,8.13081169128418,0.5359922647476196
1701089669293399800,5.95739990234375,-4.620540618896484,8.693124771118164,0.5144568681716919
1701089669312099000,5.97609912109375,-5.101497650146484,9.042476654052734,0.004785645287483931
1701089669330798600,5.994798583984375,-5.290530681610107,9.164510726928711,-0.7345965504646301
1701089669349497900,6.013497802734375,-5.072783946990967,9.410971641540527,-1.6199408769607544
1701089669368197400,6.032197265625,-5.501099109649658,9.037691116333008,-1.4763715267181396
1701089669386896600,6.050896728515625,-5.4556355476379395,8.286344528198242,-0.8111668825149536
1701089669405596200,6.06959619140625,-4.945964336395264,8.422736167907715,-0.8087740540504456
1701089669424295400,6.08829541015625,-4.295116424560547,8.599804878234863,-1.0049854516983032
1701089669442995000,6.106994873046875,-3.8596229553222656,8.46580696105957,-1.5960127115249634
1701089669461694200,6.125694091796875,-4.1347975730896,8.360522270202637,-2.0793628692626953
1701089669480393700,6.144393798828125,-4.7234320640563965,8.638090133666992,-2.383251428604126
1701089669499093000,6.163093017578125,-5.115854740142822,9.018548965454102,-2.0410776138305664
1701089669517792500,6.18179248046875,-4.867001056671143,9.121439933776855,-1.7228323221206665
1701089669536491800,6.20049169921875,-4.067798614501953,8.934800148010254,-1.3543375730514526
1701089669555191300,6.21919140625,-3.4983067512512207,8.726624488830566,-1.3232308626174927
1701089669573890600,6.237890625,-3.7734813690185547,8.827122688293457,-1.6773686408996582
1701089669592590000,6.256590087890625,-4.768895626068115,8.851051330566406,-1.9932212829589844
1701089669611289300,6.275289306640625,-5.465207099914551,8.563912391662598,-2.4837498664855957
1701089669629988900,6.29398876953125,-5.113461971282959,8.358129501342773,-2.6967110633850098
1701089669648688000,6.312688232421875,-4.108476638793945,8.257631301879883,-2.407179594039917
1701089669667387600,6.3313876953125,-3.452843189239502,7.936992645263672,-2.0745773315429688
1701089669686087000,6.3500869140625,-3.5222349166870117,7.668996810913086,-2.0889341831207275
1701089669704786200,6.3687861328125,-4.113262176513672,7.5804619789123535,-2.0673987865448
1701089669723485700,6.387485595703125,-4.9292144775390625,7.970492362976074,-1.5984054803848267
1701089669742185200,6.406185302734375,-4.895715236663818,8.267202377319336,-1.1054840087890625
1701089669760884500,6.424884521484375,-4.295116424560547,8.492127418518066,-0.3278166949748993
1701089669779584000,6.443583984375,-5.07517671585083,8.274380683898926,0.11006984114646912
1701089669798283300,6.462283203125,-4.802394866943359,7.920242786407471,-0.9188438653945923
1701089669816982500,6.480982421875,-3.8428730964660645,8.398807525634766,-1.8041882514953613
1701089669835682000,6.49968212890625,-4.40757942199707,9.284152030944824,-2.1367905139923096
1701089669854381600,6.518381591796875,-5.711667537689209,9.623932838439941,-1.852044701576233
1701089669873080800,6.537080810546875,-6.214160442352295,9.475577354431152,-0.9236295223236084
1701089669891780400,6.5557802734375,-6.2189459800720215,9.513862609863281,0.10767702013254166
1701089669910479600,6.574479736328125,-5.998806476593018,9.628718376159668,-0.035892341285943985
1701089669929179000,6.593178955078125,-5.139782905578613,9.588040351867676,-0.23688943684101105
1701089669947878400,6.61187841796875,-4.453042984008789,9.418149948120117,-0.39481574296951294
1701089669966577700,6.63057763671875,-4.18983268737793,9.279366493225098,-0.5838487148284912
1701089669985277200,6.649277099609375,-4.417150497436523,9.037691116333008,-0.7896314859390259
1701089670003976700,6.667976806640625,-4.543970108032227,8.870193481445312,-0.8159525394439697
1701089670022676000,6.686676025390625,-4.53200626373291,8.58784008026123,-0.35892340540885925
1701089670041375200,6.705375244140625,-4.551148891448975,8.295916557312012,-0.05503492057323456
1701089670060074800,6.72407470703125,-4.333401679992676,7.592426300048828,0.607776939868927
1701089670078774000,6.74277392578125,-5.048855781555176,7.322037220001221,-0.3397808074951172
1701089670097473500,6.7614736328125,-4.199403762817383,8.353343963623047,0.22971096634864807
1701089670116173000,6.780173095703125,-3.596412420272827,9.17886734008789,-0.6819544434547424
1701089670134872300,6.798872314453125,-6.10169792175293,9.20279598236084,-1.0767701864242554
1701089670153571800,6.81757177734375,-6.1950178146362305,8.798408508300781,-0.31106695532798767
1701089670172271000,6.83627099609375,-4.826323509216309,8.772088050842285,-0.6221339106559753
1701089670190970400,6.854970458984375,-4.522434711456299,8.788837432861328,-0.5000999569892883
1701089670209670000,6.873669921875,-4.778466701507568,8.63330364227295,-0.794417142868042
1701089670228369200,6.892369140625,-4.893322467803955,8.484949111938477,-0.8566305041313171
1701089670247068700,6.911068603515625,-4.919643402099609,8.236095428466797,-0.7226324677467346
1701089670265768200,6.929768310546875,-4.718646049499512,8.063812255859375,-0.7824530005455017
1701089670284467500,6.948467529296875,-4.390829563140869,8.042277336120605,-0.916451096534729
1701089670303166700,6.967166748046875,-4.599005222320557,8.109275817871094,-1.0145567655563354
1701089670321866200,6.9858662109375,-5.0225348472595215,8.078168869018555,-1.1054840087890625
1701089670340565500,7.0045654296875,-5.3216376304626465,8.133204460144043,-1.129412293434143
1701089670359265000,7.02326513671875,-5.38624382019043,8.181060791015625,-0.9882357716560364
1701089670377964300,7.04196435546875,-5.091926574707031,8.267202377319336,-0.8805587291717529
1701089670396663800,7.060663818359375,-4.835894584655762,8.499305725097656,-0.7968099117279053
1701089670415363000,7.079363037109375,-4.852644443511963,8.477770805358887,-0.8159525394439697
1701089670434062600,7.0980625,-4.934000492095947,8.291130065917969,-0.8231309652328491
1701089670452761900,7.116761962890625,-4.924428939819336,8.154739379882812,-0.9499505758285522
1701089670471461400,7.13546142578125,-4.938786029815674,8.13798999786377,-1.0719845294952393
1701089670490160600,7.15416064453125,-4.977071285247803,8.221738815307617,-1.0528420209884644
1701089670508860200,7.172860107421875,-5.041677474975586,8.12123966217041,-0.9978070259094238
1701089670527559400,7.191559326171875,-5.120640277862549,7.8795647621154785,-1.0839486122131348
1701089670546259000,7.210259033203125,-5.163711071014404,7.542177200317383,-0.9116654396057129
1701089670564958200,7.228958251953125,-5.072783946990967,7.264609336853027,-0.6460621356964111
1701089670583657700,7.24765771484375,-4.840680122375488,7.2574310302734375,-0.4953143000602722
1701089670602357000,7.26635693359375,-4.735395908355713,7.168896675109863,-0.39481574296951294
1701089670621056500,7.285056396484375,-4.780859470367432,7.1234331130981445,-0.42352959513664246
1701089670639755800,7.303755859375,-4.811966419219971,7.221538543701172,-0.576670229434967
1701089670658455000,7.322455078125,-4.898108005523682,7.302894592285156,-0.5240281820297241
1701089670677154600,7.341154541015625,-5.0943193435668945,7.211967468261719,-0.4019941985607147
1701089670695854000,7.35985400390625,-5.290530681610107,7.283751964569092,-0.2871387302875519
1701089670714553300,7.37855322265625,-5.706881999969482,7.341179847717285,-0.44027936458587646
1701089670733252900,7.3972529296875,-6.183053493499756,7.221538543701172,-0.44745782017707825
1701089670751952100,7.4159521484375,-6.1950178146362305,7.1162543296813965,-0.45942193269729614
1701089670770651400,7.4346513671875,-5.838487148284912,7.113861560821533,-0.6771687865257263
1701089670789351000,7.453350830078125,-5.635097503662109,7.09711217880249,-0.7680960893630981
1701089670808050400,7.472050537109375,-5.946164131164551,6.843472957611084,-0.6915257573127747
1701089670826749700,7.490749755859375,-6.259624004364014,6.953542709350586,-0.7058826684951782
1701089670845449200,7.50944921875,-6.32662296295166,7.128218650817871,-0.698704183101654
1701089670864148500,7.5281484375,-6.403193473815918,7.211967468261719,-0.7417750358581543
1701089670882847700,7.54684765625,-6.678368091583252,7.192824840545654,-0.7513462901115417
1701089670901547300,7.56554736328125,-6.63769006729126,6.867401123046875,-0.44745782017707825
1701089670920246500,7.58424658203125,-6.577869415283203,6.472585201263428,-0.4307080805301666
1701089670938946000,7.602946044921875,-6.398407936096191,6.142375946044922,-0.11006984114646912
1701089670957645300,7.621645263671875,-6.618547439575195,6.656832695007324,-0.2847459018230438
1701089670976344800,7.6403447265625,-7.070790767669678,6.838686943054199,-0.27038896083831787
1701089670995044000,7.659044189453125,-7.420143127441406,6.482156753540039,-0.5312066078186035
1701089671013743600,7.67774365234375,-7.324429988861084,6.309873104095459,-0.6269195079803467
1701089671032443000,7.69644287109375,-7.472784996032715,6.472585201263428,-0.5168496966362
1701089671051142400,7.715142333984375,-7.688138961791992,6.57547664642334,-0.3684946894645691
1701089671069841700,7.733841552734375,-8.178668022155762,6.455835342407227,-0.23449662327766418
1701089671088540200,7.7525400390625,-8.228917121887207,6.716653347015381,-0.16031911969184875
1701089671107239400,7.771239501953125,-7.963313579559326,7.027719974517822,-0.17706887423992157
1701089671125939000,7.78993896484375,-7.544569969177246,7.293323516845703,-0.349352091550827
1701089671144638500,7.808638427734375,-7.970492362976074,7.255038261413574,-0.2847459018230438
1701089671163337700,7.827337646484375,-8.236095428466797,6.8004021644592285,-0.17228323221206665
1701089671182037000,7.846037109375,-7.503891944885254,6.592226505279541,-0.13160525262355804
1701089671200736500,7.864736572265625,-6.412764549255371,6.759724140167236,-0.2799602448940277
1701089671219435800,7.883435791015625,-6.64486837387085,6.654439926147461,-0.7082754969596863
1701089671238135300,7.90213525390625,-8.563912391662598,6.702296257019043,-0.8877372145652771
1701089671256834600,7.92083447265625,-9.812965393066406,7.022934436798096,-0.20338992774486542
1701089671275534000,7.9395341796875,-8.62612533569336,7.389036178588867,-0.380458801984787
1701089671294233300,7.9582333984375,-7.412964344024658,7.216753005981445,-0.607776939868927
1701089671312932900,7.976932861328125,-8.078168869018555,6.802794933319092,-0.46420758962631226
1701089671331632000,7.995632080078125,-9.729216575622559,7.171289443969727,-0.5958128571510315
1701089671350331600,8.01433154296875,-9.930213928222656,7.685746192932129,-0.5048855543136597
1701089671369031000,8.033031005859375,-8.992227554321289,8.188239097595215,-0.32542386651039124
1701089671387730400,8.05173046875,-8.4562349319458,7.905886173248291,-0.01196411345154047
1701089671406429700,8.0704296875,-7.743174076080322,7.523034572601318,0.21296121180057526
1701089671425129200,8.089129150390624,-7.724031448364258,7.362715244293213,0.48095735907554626
1701089671443828500,8.107828369140625,-9.860821723937988,6.936792850494385,0.46420758962631226
1701089671462528000,8.126528076171875,-10.882556915283203,6.905686378479004,0.4139583110809326
1701089671481227300,8.145227294921876,-8.157132148742676,6.845865726470947,0.031106693670153618
1701089671499926800,8.1639267578125,-7.073183536529541,6.819544315338135,-0.18903298676013947
1701089671518626000,8.1826259765625,-7.154539585113525,7.094718933105469,0.3613162338733673
1701089671537325600,8.20132568359375,-11.559725761413574,7.312466144561768,0.1579262912273407
1701089671556024800,8.22002490234375,-10.822736740112305,6.953542709350586,-0.12921242415905
1701089671574724000,8.23872412109375,-13.521841049194336,6.984649181365967,0.9020941257476807
1701089671593423600,8.257423583984375,-12.30389404296875,7.09711217880249,1.0815558433532715
1701089671612123100,8.276123046875,-11.24626636505127,6.460621356964111,0.9643075466156006
1701089671630822400,8.294822509765625,-8.824729919433594,6.479763507843018,0.6532405614852905
1701089671649522000,8.31352197265625,-8.95394229888916,7.020541667938232,0.12921242415905
1701089671668221200,8.33222119140625,-9.133403778076172,8.559126853942871,-1.2705888748168945
1701089671686920400,8.35092041015625,-8.812766075134277,10.147960662841797,-1.373480200767517
1701089671705620000,8.369619873046876,-7.877171993255615,11.473584175109863,-1.5002998113632202
1701089671724319200,8.3883193359375,-7.822137355804443,13.538590431213379,-2.825923442840576
1701089671743018800,8.407018798828124,-7.051648139953613,14.811572074890137,-3.1561331748962402
1701089671761718300,8.42571826171875,-7.496713161468506,16.92922019958496,-2.8737800121307373
1701089671780417500,8.44441748046875,-11.499905586242676,21.01616096496582,-2.794816732406616
1701089671799116800,8.46311669921875,-13.339985847473145,21.554546356201172,-3.8285162448883057
1701089671817816300,8.48181640625,-21.62872314453125,18.44866180419922,-3.4504501819610596
1701089671836515600,8.500515625,-28.046274185180664,24.97149658203125,-1.5098711252212524
1701089671855215000,8.519215087890625,3.0388846397399902,21.449262619018555,-1.3208380937576294
1701089671873914400,8.537914306640625,12.739387512207031,-2.7565317153930664,2.306680917739868
1701089671892614000,8.55661376953125,-8.23130989074707,-5.948556900024414,-3.1345977783203125
1701089671911313200,8.575313232421875,-3.2470602989196777,-11.846864700317383,7.841279983520508
1701089671930012700,8.5940126953125,-15.850057601928711,-12.112467765808105,10.796415328979492
1701089671948712000,8.6127119140625,-11.856435775756836,-3.649054527282715,5.096712112426758
1701089671967411500,8.631411376953125,-1.892722725868225,-1.7443677186965942,-0.17946170270442963
1701089671986110700,8.65011083984375,2.431107759475708,-2.445464849472046,-3.373879909515381
1701089672004810200,8.668810302734375,2.7278177738189697,-1.9142581224441528,-2.2229323387145996
1701089672023509500,8.687509521484374,4.898108005523682,0.6747759580612183,-4.577469825744629
1701089672042209000,8.706208984375,1.9812572002410889,3.6442689895629883,-3.1417760848999023
1701089672060908300,8.724908203125,-1.703689694404602,4.7952165603637695,-1.5242279767990112
1701089672079607800,8.74360791015625,-0.3397808074951172,2.9455647468566895,-0.9786644577980042
1701089672098307000,8.76230712890625,-1.672582983970642,0.18903298676013947,1.25144624710083
1701089672117006600,8.781006591796874,-1.557727575302124,-1.34476637840271,1.3758729696273804
1701089672135705900,8.799705810546875,0.10049854964017868,-1.8855443000793457,0.16749759018421173
1701089672154405000,8.818405029296875,1.2993026971817017,-1.7419748306274414,-2.093719720840454
1701089672173104600,8.837104736328126,3.373879909515381,-0.5910272002220154,-2.4837498664855957
1701089672191804000,8.855803955078125,4.910071849822998,0.34695929288864136,-1.7419748306274414
1701089672210503400,8.87450341796875,1.3782658576965332,0.8590233325958252,-0.16031911969184875
1701089672229203000,8.893202880859375,0.5647061467170715,1.820937991142273,-0.9379864931106567
1701089672247902200,8.911902099609375,4.292723655700684,3.046063184738159,-1.0145567655563354
1701089672266601500,8.9306015625,1.8735800981521606,2.7732813358306885,-0.2273181527853012
1701089672285301000,8.949301025390625,-0.6532405614852905,2.3162522315979004,0.5647061467170715
1701089672304000300,8.968000244140624,-0.5623133182525635,0.1746760457754135,1.124626636505127
1701089672322699800,8.98669970703125,-20.98505401611328,1.0767701864242554,2.7421748638153076
1701089672341399000,9.00539892578125,-57.49952697753906,15.04128360748291,-4.677968502044678
1701089672360098600,9.0240986328125,-17.23789405822754,46.76293182373047,-7.984848976135254
1701089672378797800,9.0427978515625,-7.3914289474487305,23.83490562438965,-2.2085752487182617
1701089672397497300,9.061497314453124,-11.866007804870605,7.393822193145752,-1.5625132322311401
1701089672416196600,9.080196533203125,-5.855237007141113,9.772287368774414,0.6293123364448547
1701089672434896100,9.098896240234374,-13.052847862243652,15.31167221069336,-4.12761926651001
1701089672453595400,9.117595458984376,-11.188838958740234,15.495919227600098,-3.3068809509277344
1701089672472295000,9.136294921875,-9.619147300720215,14.56511116027832,-2.933600664138794
1701089672490994200,9.154994140625,-10.674382209777832,15.285350799560547,-4.175475597381592
1701089672509693400,9.173693359375,-9.796216011047363,15.153745651245117,-3.3954153060913086
1701089672528393000,9.19239306640625,-8.93958568572998,12.65324592590332,-1.399801254272461
1701089672547092500,9.211092529296875,-7.334001541137695,10.200602531433105,0.12203395366668701
1701089672565791700,9.229791748046875,-5.326423168182373,9.810572624206543,0.973878800868988
1701089672584491300,9.2484912109375,-5.19242525100708,10.822736740112305,0.7106683254241943
1701089672603190500,9.2671904296875,-7.211967468261719,11.992827415466309,-0.9906286001205444
1701089672621890000,9.28589013671875,-7.417750358581543,12.557533264160156,-2.7517459392547607
1701089672640589300,9.30458935546875,-6.680760860443115,12.366106986999512,-2.9479575157165527
1701089672659288600,9.32328857421875,-6.453442573547363,12.07896900177002,-2.234896421432495
1701089672677987800,9.34198779296875,-5.726024627685547,11.636296272277832,-1.8664016723632812
1701089672696687400,9.360687255859375,-3.799802303314209,11.119446754455566,-2.201396942138672
1701089672715387000,9.379386962890624,-3.129812002182007,9.882357597351074,-1.9908283948898315
1701089672734086400,9.39808642578125,-3.428914785385132,8.343772888183594,-1.9908283948898315
1701089672752785700,9.41678564453125,-7.635497093200684,6.556334018707275,-0.5934200286865234
1701089672771485000,9.43548486328125,-1.8975083827972412,7.204789161682129,-7.133004188537598
1701089672790184400,9.454184326171875,-1.8592232465744019,4.831109046936035,-4.917250633239746
1701089672808883700,9.4728837890625,0.35413774847984314,4.185046672821045,1.093519926071167
1701089672827583200,9.491583251953125,1.0791629552841187,3.6227335929870605,-0.3158525824546814
1701089672846282500,9.510282470703125,-5.00578498840332,0.8231309652328491,-0.7824530005455017
1701089672864982000,9.52898193359375,-5.438885688781738,0.42831525206565857,-1.8089739084243774
1701089672883681300,9.547681396484375,-3.1800613403320312,2.4119651317596436,-2.210968017578125
1701089672902380800,9.566380859375,-3.6466617584228516,4.175475597381592,-1.8233308792114258
1701089672921080000,9.585080078125,-4.809573650360107,5.099104881286621,-1.521835207939148
1701089672939779600,9.603779541015625,-5.903093338012695,5.936593055725098,-0.9188438653945923
1701089672958478800,9.622478759765626,-6.262016773223877,7.207181930541992,-0.4713860750198364
1701089672977178400,9.641178466796875,-6.984649181365967,8.532805442810059,-1.0480563640594482
1701089672995877600,9.659877685546874,-6.58265495300293,8.719446182250977,-0.8662018179893494
1701089673014577200,9.6785771484375,-5.087141036987305,9.078369140625,-1.1485549211502075
1701089673033276400,9.6972763671875,-5.175675392150879,12.418749809265137,-0.4713860750198364
1701089673051976000,9.715975830078126,-9.396614074707031,11.889935493469238,-0.2153540402650833
1701089673070675200,9.73467529296875,-4.675575256347656,9.53779125213623,-2.273181438446045
1701089673089374700,9.753374755859374,-3.218346357345581,8.382058143615723,-1.28255295753479
1701089673108074000,9.772073974609375,-8.915657043457031,8.520841598510742,-2.9718856811523438
1701089673126773200,9.790773193359374,-0.34695929288864136,9.181260108947754,-2.1511476039886475
1701089673145472800,9.80947265625,-0.9379864931106567,7.774280548095703,-3.0173492431640625
1701089673164172300,9.82817236328125,-1.5936198234558105,6.922435760498047,-0.8781659007072449
1701089673182871600,9.84687158203125,-4.5200419425964355,9.449256896972656,-1.7587246894836426
1701089673201571000,9.865571044921875,-7.1856465339660645,10.320243835449219,0.2991028428077698
1701089673220270300,9.884270263671874,-7.250252723693848,9.18843936920166,1.1174482107162476
1701089673238969600,9.902969482421875,-4.6540398597717285,8.549555778503418,-0.5934200286865234
1701089673257669000,9.921669189453125,-4.328616142272949,9.128618240356445,-1.1629117727279663
1701089673276368400,9.940368408203126,-3.486342668533325,8.812766075134277,-0.29431718587875366
1701089673295068000,9.95906787109375,-3.0412776470184326,8.140382766723633,1.0169496536254883
1701089673313767400,9.977767333984374,-4.6995038986206055,9.506684303283691,-1.6582261323928833
1701089673332466700,9.996466796875,-7.269395351409912,11.054841041564941,-0.7178468108177185
1701089673351166000,10.015166015625,-2.7278177738189697,9.365508079528809,-0.5479564070701599
1701089673369865500,10.033865478515626,-2.194218397140503,8.779266357421875,-0.5096712112426758
1701089673388564700,10.052564697265625,-4.457828521728516,8.279166221618652,0.22492532432079315
1701089673407264300,10.07126416015625,-5.568098068237305,8.413164138793945,0.7202396392822266
1701089673425963500,10.089963623046875,-3.280559778213501,9.219545364379883,0.6939185857772827
1701089673444663000,10.1086630859375,-2.2372891902923584,9.903892517089844,-0.09092725813388824
1701089673463362300,10.1273623046875,-3.1034910678863525,10.124032974243164,-0.729810893535614
1701089673482061800,10.146061767578125,-2.093719720840454,9.951749801635742,-0.7992027401924133
1701089673500761000,10.164760986328124,-0.851844847202301,10.301101684570312,-0.3852444589138031
1701089673519460600,10.183460693359375,-3.555734395980835,11.054841041564941,-0.1459621787071228
1701089673538159900,10.202159912109375,-3.87876558303833,10.116853713989258,-0.2105683982372284
1701089673556859400,10.220859375,-2.0889341831207275,10.786844253540039,0.05503492057323456
1701089673575558700,10.23955859375,0.23449662327766418,12.208181381225586,-0.6819544434547424
1701089673594258000,10.2582578125,-1.428515076637268,11.432906150817871,-1.3040883541107178
1701089673612957400,10.27695751953125,-0.97148597240448,11.009376525878906,-1.6558332443237305
1701089673631657000,10.295656982421875,-0.9810572862625122,8.681160926818848,-0.6484549641609192
1701089673650356200,10.314356201171876,-3.3786656856536865,16.63968849182129,-1.612762451171875
1701089673669055700,10.3330556640625,-2.9288148880004883,19.17847442626953,-2.390429735183716
1701089673687755000,10.351755126953124,-2.9599215984344482,18.570695877075195,-2.043470621109009
1701089673706454500,10.37045458984375,-1.5337992906570435,12.28953742980957,-0.8470591902732849
1701089673725153800,10.38915380859375,-2.0267207622528076,8.80798053741455,3.4791641235351562
1701089673743853000,10.40785302734375,-1.8352949619293213,6.783652305603027,3.218346357345581
1701089673762552600,10.426552490234375,-2.8426733016967773,4.587040901184082,3.7184464931488037
1701089673781252000,10.445252197265624,-2.3856441974639893,2.691925525665283,2.3497519493103027
1701089673799951400,10.463951416015625,-3.1800613403320312,1.4261223077774048,2.0889341831207275
1701089673818651000,10.48265087890625,-2.172683000564575,1.6271194219589233,2.6967110633850098
1701089673837350100,10.50135009765625,-1.1509476900100708,3.3619158267974854,4.041477680206299
1701089673856049400,10.52004931640625,-2.730210542678833,7.527820110321045,1.1341979503631592
1701089673874749000,10.5387490234375,0.2105683982372284,8.800801277160645,-4.022335052490234
1701089673893448200,10.5574482421875,-0.05024927482008934,6.161518096923828,-11.24626636505127
1701089673912147700,10.576147705078125,-1.5002998113632202,3.421736478805542,-7.051648139953613
1701089673930847200,10.59484716796875,-3.050848960876465,5.709274768829346,-2.785245656967163
1701089673949546500,10.61354638671875,-1.1629117727279663,8.4562349319458,-4.5200419425964355
1701089673968245800,10.632245849609374,1.7563318014144897,8.654839515686035,-4.639683246612549
1701089673986945300,10.6509453125,3.9744784832000732,8.934800148010254,-4.280759811401367
1701089674005644500,10.66964453125,3.2997024059295654,8.910871505737305,-5.637490272521973
1701089674024344000,10.688343994140626,4.505684852600098,6.975078105926514,-4.170690059661865
1701089674043043300,10.707043212890625,2.163111686706543,8.061419486999512,-2.7493531703948975
1701089674061742800,10.725742919921874,5.225924491882324,9.07119083404541,-7.144968509674072
1701089674080442000,10.744442138671875,3.4983067512512207,10.04985523223877,-7.735995769500732
1701089674099141600,10.7631416015625,2.076970100402832,10.475777626037598,-3.5222349166870117
1701089674117841000,10.7818408203125,6.345765590667725,10.14317512512207,-1.3782658576965332
1701089674136540400,10.80054052734375,8.228917121887207,8.992227554321289,-2.3880369663238525
1701089674155239700,10.81923974609375,5.065605640411377,6.7310099601745605,-4.386044025421143
1701089674173939200,10.837939208984375,4.347758769989014,6.015556335449219,-5.450850009918213
1701089674192638500,10.856638427734374,7.884350776672363,5.979663848876953,-4.5583271980285645
1701089674211338000,10.875337890625,11.23908805847168,4.543970108032227,-2.3569302558898926
1701089674230037200,10.894037353515625,12.531211853027344,4.204189300537109,0.9499505758285522
1701089674248736800,10.91273681640625,11.68175983428955,3.675375461578369,3.809373617172241
1701089674267436000,10.93143603515625,10.511670112609863,3.2374889850616455,4.235296249389648
1701089674286135600,10.950135498046874,9.317651748657227,3.7423746585845947,1.4404792785644531
1701089674304834800,10.968834716796875,8.188239097595215,4.335794448852539,-0.04546362906694412
1701089674323534000,10.9875341796875,8.360522270202637,4.29033088684082,0.4450650215148926
1701089674342233600,11.006233642578126,9.30329418182373,4.821537494659424,1.3208380937576294
1701089674360933000,11.02493310546875,9.399007797241211,4.12761926651001,1.3040883541107178
1701089674379632400,11.04363232421875,9.183652877807617,3.452843189239502,1.1892328262329102
1701089674398332000,11.062331787109375,9.176474571228027,3.139383316040039,1.0959128141403198
1701089674417031200,11.08103125,9.442078590393066,3.10109806060791,1.2418749332427979
1701089674435730400,11.09973046875,9.477970123291016,3.2303106784820557,1.3256237506866455
1701089674454430000,11.118429931640625,9.05444049835205,3.25663161277771,0.46420758962631226
1701089674473129200,11.137129150390624,8.47298526763916,3.239881753921509,0.11006984114646912
1701089674491828700,11.155828857421875,7.968099594116211,3.572484254837036,0.1986042857170105
1701089674510528300,11.1745283203125,7.283751964569092,3.594019651412964,0.2105683982372284
1701089674529227500,11.1932275390625,7.286144733428955,3.6394832134246826,0.25363919138908386
1701089674547926800,11.2119267578125,7.850851058959961,3.4648072719573975,0.5838487148284912
1701089674566626300,11.230626220703124,8.599804878234863,3.38105845451355,1.2131611108779907
1701089674585325600,11.24932568359375,9.58325481414795,3.3786656856536865,0.8685946464538574
1701089674604025000,11.268025146484375,9.839286804199219,3.445664644241333,0.13639089465141296
1701089674622724600,11.286724609375,9.274580955505371,3.390629768371582,0.46420758962631226
1701089674641424000,11.305423828125,9.066405296325684,3.263810157775879,1.1126625537872314
1701089674660123100,11.324123046875,9.619147300720215,3.3714871406555176,0.5359922647476196
1701089674678822700,11.34282275390625,9.638289451599121,3.4648072719573975,-0.12203395366668701
1701089674697522000,11.36152197265625,9.281759262084961,3.5198421478271484,-0.10767702013254166
1701089674716221400,11.380221435546876,9.351150512695312,3.3930225372314453,0.2871387302875519
1701089674734920700,11.398920654296875,9.628718376159668,3.6634113788604736,0.12203395366668701
1701089674753620200,11.4176201171875,9.20279598236084,3.6538400650024414,-0.07178468257188797
1701089674772319500,11.436319580078125,8.695517539978027,3.31884503364563,0.48574298620224
1701089674791019000,11.45501904296875,10.480563163757324,4.027120590209961,0.7034898400306702
1701089674809718300,11.47371826171875,7.999206066131592,3.3619158267974854,-0.42831525206565857
1701089674828417800,11.492417724609375,7.010970115661621,3.5748770236968994,-0.9643075466156006
1701089674847117000,11.511116943359376,8.047062873840332,3.9792640209198,-0.5144568681716919
1701089674865816600,11.529816650390625,9.095118522644043,4.359723091125488,-0.6795616149902344
