time,seconds_elapsed,z,y,x
1675156294409684200,0.051684326171875,9.924264907836914,2.3319525718688965,-0.6967126727104187
1675156294429684200,0.071684326171875,9.708786964416504,2.4013843536376953,-0.569819986820221
1675156294449684200,0.091684326171875,9.814131736755371,2.5282769203186035,-0.6607996821403503
1675156294469684200,0.111684326171875,9.818920135498047,2.410961151123047,-0.5602431893348694
1675156294489684200,0.131684326171875,9.76864242553711,2.3487119674682617,-0.45010992884635925
1675156294509684200,0.151684326171875,9.62259578704834,2.387019157409668,-0.33997663855552673
1675156294529684200,0.171684326171875,9.608230590820312,2.365471363067627,-0.3256114423274994
1675156294549684200,0.191684326171875,9.907505989074707,2.4157495498657227,-0.5841852426528931
1675156294569684200,0.211684326171875,9.890746116638184,2.410961151123047,-0.6512228846549988
1675156294589684200,0.231684326171875,9.68005657196045,2.3774423599243164,-0.5339069962501526
1675156294609684200,0.251684326171875,9.720758438110352,2.408566951751709,-0.5027823448181152
1675156294629684200,0.271684326171875,9.761459350585938,2.2649147510528564,-0.5195417404174805
1675156294649683500,0.291683349609375,9.696816444396973,2.293645143508911,-0.43335050344467163
1675156294669683000,0.311682861328125,9.799766540527344,2.2361843585968018,-0.4165911078453064
1675156294689682000,0.331681884765625,9.996091842651367,2.0805611610412598,-0.5315127968788147
1675156294709681400,0.351681396484375,10.043975830078125,2.1140801906585693,-0.545877993106842
1675156294729681400,0.371681396484375,9.933841705322266,2.2409727573394775,-0.48602294921875
1675156294749680600,0.3916806640625,9.742305755615234,2.2577321529388428,-0.4165911078453064
1675156294769680600,0.4116806640625,9.730335235595703,2.319981336593628,-0.44532153010368347
1675156294789680600,0.4316806640625,9.952995300292969,2.604891538619995,-0.6153098344802856
1675156294809680600,0.4516806640625,10.041581153869629,2.4013843536376953,-0.5746083855628967
1675156294829680600,0.4716806640625,9.885957717895508,2.1475989818573,-0.2801215946674347
1675156294849680600,0.4916806640625,9.610625267028809,2.1547815799713135,-0.10295066982507706
1675156294869680600,0.5116806640625,9.699210166931152,2.4899697303771973,-0.36152446269989014
1675156294889680600,0.5316806640625,9.773430824279785,2.5905263423919678,-0.2849099934101105
1675156294909680600,0.5516806640625,9.823708534240723,2.3726539611816406,-0.30885201692581177
1675156294929680600,0.5716806640625,9.488520622253418,2.123656988143921,-0.10534487664699554
1675156294949680600,0.5916806640625,9.38556957244873,2.2218191623687744,-0.07661445438861847
1675156294969680600,0.6116806640625,9.543587684631348,2.3774423599243164,-0.3734954595565796
1675156294989680600,0.6316806640625,9.517251014709473,2.346317768096924,-0.3902548849582672
1675156295009680600,0.6516806640625,9.392752647399902,2.408566951751709,-0.608127236366272
1675156295029680600,0.6716806640625,9.340080261230469,2.5665841102600098,-0.43095630407333374
1675156295049680600,0.6916806640625,9.567529678344727,2.470816135406494,-0.40940847992897034
1675156295069680600,0.7116806640625,9.74470043182373,2.33913516998291,-0.3734954595565796
1675156295089680600,0.7316806640625,9.591471672058105,2.233790159225464,-0.28969839215278625
1675156295109680600,0.7516806640625,9.536404609680176,2.4181437492370605,-0.2106897532939911
1675156295129680600,0.7716806640625,9.58907699584961,2.4396915435791016,-0.22744916379451752
1675156295149680600,0.7916806640625,9.708786964416504,2.315192937850952,-0.14844051003456116
1675156295169680600,0.8116806640625,9.636960983276367,2.3558945655822754,-0.181959331035614
1675156295189680600,0.8316806640625,9.706393241882324,2.5689783096313477,-0.3998316824436188
1675156295209680600,0.8516806640625,9.787796020507812,2.557007312774658,-0.4620809257030487
1675156295229680600,0.8716806640625,9.660902976989746,2.691082715988159,-0.2968810200691223
1675156295249681200,0.89168115234375,9.76864242553711,2.3989901542663574,-0.27054479718208313
1675156295269682000,0.911681884765625,10.14213752746582,2.5785553455352783,-0.6991068720817566
1675156295289682700,0.9316826171875,9.957783699035645,2.5713725090026855,-0.6129156351089478
1675156295309683500,0.951683349609375,9.634567260742188,2.4612393379211426,-0.33279404044151306
1675156295329683500,0.971683349609375,9.665691375732422,2.4372973442077637,-0.33279404044151306
1675156295349684200,0.991684326171875,9.727940559387207,2.427720546722412,-0.3878606855869293
1675156295369684200,1.011684326171875,9.723152160644531,2.3295583724975586,-0.4141969084739685
1675156295389684200,1.031684326171875,9.761459350585938,2.3127987384796143,-0.44771572947502136
1675156295409684200,1.051684326171875,9.878775596618652,2.252943754196167,-0.4213795065879822
1675156295429684200,1.071684326171875,9.74709415435791,2.169146776199341,-0.29209262132644653
1675156295449684200,1.091684326171875,9.627384185791016,2.2697031497955322,-0.19871874153614044
1675156295469684200,1.111684326171875,9.636960983276367,2.4013843536376953,-0.272938996553421
1675156295489684200,1.131684326171875,9.708786964416504,2.343923568725586,-0.29209262132644653
1675156295509684200,1.151684326171875,9.799766540527344,2.2625205516815186,-0.3208230137825012
1675156295529684200,1.171684326171875,9.773430824279785,2.3487119674682617,-0.38307225704193115
1675156295549684200,1.191684326171875,9.809343338012695,2.3343467712402344,-0.4596867263317108
1675156295569684200,1.211684326171875,9.830891609191895,2.33913516998291,-0.4213795065879822
1675156295589684200,1.231684326171875,9.921871185302734,2.33913516998291,-0.4429273009300232
1675156295609684200,1.251684326171875,9.890746116638184,2.4157495498657227,-0.4357447028160095
1675156295629684200,1.271684326171875,9.773430824279785,2.4229321479797363,-0.4381389021873474
1675156295649683500,1.291683349609375,9.62259578704834,2.427720546722412,-0.3687070608139038
1675156295669683000,1.311682861328125,9.632172584533691,2.406172752380371,-0.3663128614425659
1675156295689682000,1.331681884765625,9.632172584533691,2.3319525718688965,-0.38307225704193115
1675156295709681400,1.351681396484375,9.605836868286133,2.432508945465088,-0.395043283700943
1675156295729681400,1.371681396484375,9.711181640625,2.5234885215759277,-0.47165772318840027
1675156295749681400,1.391681396484375,9.756670951843262,2.432508945465088,-0.3974374830722809
1675156295769681400,1.411681396484375,9.730335235595703,2.365471363067627,-0.4118026793003082
1675156295789681400,1.431681396484375,9.617807388305664,2.3989901542663574,-0.38067805767059326
1675156295809681400,1.451681396484375,9.452607154846191,2.360682964324951,-0.30885201692581177
1675156295829681400,1.471681396484375,9.445425033569336,2.4157495498657227,-0.31842881441116333
1675156295850510800,1.4925107421875,9.550769805908203,2.389413356781006,-0.35913026332855225
1675156295870510800,1.5125107421875,9.38556957244873,2.296039342880249,-0.2513911724090576
1675156295890510800,1.5325107421875,9.143755912780762,2.3702597618103027,0.0933738648891449
1675156295910510800,1.5525107421875,9.22755241394043,2.3343467712402344,-0.12449848651885986
1675156295930510800,1.5725107421875,9.759065628051758,2.671929121017456,-0.7565677165985107
1675156295950510800,1.5925107421875,9.996091842651367,3.1962592601776123,-1.3096283674240112
1675156295970510800,1.6125107421875,9.826103210449219,2.911349296569824,-0.9864110946655273
1675156295990510800,1.6325107421875,9.668086051940918,2.3343467712402344,-0.7757213711738586
1675156296010510800,1.6525107421875,9.938630104064941,1.9129672050476074,-0.7876923680305481
1675156296030510800,1.6725107421875,10.012850761413574,1.7286136150360107,-0.811634361743927
1675156296050510800,1.6925107421875,9.74709415435791,2.0159177780151367,-0.7661445140838623
1675156296070510800,1.7125107421875,9.684844970703125,2.1715409755706787,-0.7805097699165344
1675156296090510800,1.7325107421875,9.8691987991333,1.778891921043396,-0.8762778043746948
1675156296110510800,1.7525107421875,9.814131736755371,1.7286136150360107,-0.7613561153411865
1675156296130510800,1.7725107421875,9.423876762390137,1.6041151285171509,-0.5147533416748047
1675156296150510800,1.7925107421875,9.186851501464844,1.8602946996688843,-0.6751648783683777
1675156296170510800,1.8125107421875,9.708786964416504,1.9273324012756348,-1.0055646896362305
1675156296190510800,1.8325107421875,9.771036148071289,1.5298948287963867,-0.6967126727104187
1675156296210510800,1.8525107421875,9.488520622253418,1.3311761617660522,-0.5913678407669067
1675156296230510800,1.8725107421875,9.675268173217773,1.4748282432556152,-0.9792284965515137
1675156296250511600,1.89251171875,10.122983932495117,1.158793568611145,-1.4987702369689941
1675156296270512000,1.91251220703125,10.190021514892578,1.1827356815338135,-1.53707754611969
1675156296290513200,1.93251318359375,10.046369552612305,0.9457096457481384,-0.9768342971801758
1675156296310513700,1.952513671875,10.003273963928223,0.0933738648891449,-0.9840168952941895
1675156296330513700,1.972513671875,10.541969299316406,0.37828385829925537,-0.7445967197418213
1675156296350513700,1.992513671875,10.489296913146973,0.9888052940368652,-1.0558429956436157
1675156296370513700,2.012513671875,10.103830337524414,1.53707754611969,-1.3742717504501343
1675156296390513700,2.032513671875,8.755894660949707,1.8938134908676147,-0.7876923680305481
1675156296410513700,2.052513671875,8.394370079040527,1.9297266006469727,-0.7852981686592102
1675156296430513700,2.072513671875,8.693645477294922,1.7477672100067139,-1.4101848602294922
1675156296450513700,2.092513671875,9.138967514038086,2.1763293743133545,-1.3910311460494995
1675156296470513700,2.112513671875,9.229947090148926,1.742978811264038,-1.6400281190872192
1675156296490513700,2.132513671875,9.703998565673828,3.162740468978882,-3.1196448802948
1675156296510513700,2.152513671875,9.902717590332031,3.8786067962646484,-3.179499864578247
1675156296530513700,2.172513671875,9.155726432800293,3.581725835800171,-2.8826189041137695
1675156296550513700,2.192513671875,8.430283546447754,3.9480385780334473,-3.00711727142334
1675156296570513700,2.212513671875,7.793426036834717,4.438849925994873,-2.782062292098999
1675156296590513700,2.232513671875,7.549217224121094,4.022258758544922,-2.3271639347076416
1675156296610513700,2.252513671875,7.036858081817627,3.246537446975708,-1.8076223134994507
1675156296630513700,2.272513671875,7.654561996459961,3.643975019454956,-2.537853717803955
1675156296650513200,2.29251318359375,8.233959197998047,3.907337188720703,-3.1747114658355713
1675156296670512600,2.3125126953125,8.983344078063965,3.8953661918640137,-3.9049429893493652
1675156296690511600,2.33251171875,9.596260070800781,3.9264907836914062,-4.505887508392334
1675156296710510800,2.3525107421875,8.734347343444824,3.665522813796997,-3.912125587463379
1675156296730510800,2.3725107421875,7.0464348793029785,3.866635799407959,-3.442862033843994
1675156296750510600,2.392510498046875,4.6950297355651855,5.025728702545166,-4.043806552886963
1675156296770510800,2.4125107421875,1.2832920551300049,9.115025520324707,-6.330568790435791
1675156296790510600,2.432510498046875,0.871489405632019,11.676820755004883,-8.174103736877441
1675156296810510600,2.452510498046875,2.5474305152893066,9.924264907836914,-8.181286811828613
1675156296830510600,2.472510498046875,3.823540210723877,6.239588737487793,-7.695263385772705
1675156296850510800,2.4925107421875,3.0166940689086914,5.001786708831787,-6.464643955230713
1675156296870510800,2.5125107421875,2.3702597618103027,5.571606636047363,-5.394435882568359
1675156296890510800,2.5325107421875,5.50696325302124,1.659181833267212,-7.9538373947143555
1675156296910510800,2.5525107421875,9.062353134155273,1.3694833517074585,-8.564358711242676
1675156296930510800,2.5725107421875,6.119878768920898,4.0294413566589355,-7.884405612945557
1675156296950510800,2.5925107421875,4.323928356170654,5.162198066711426,-7.999327182769775
1675156296970510800,2.6125107421875,3.0885202884674072,6.060023784637451,-8.25311279296875
1675156296990510800,2.6325107421875,2.300827741622925,5.887641429901123,-7.558794021606445
1675156297010510800,2.6525107421875,2.580949544906616,5.267542839050293,-7.206846237182617
1675156297030510800,2.6725107421875,2.5019407272338867,5.164592266082764,-7.441478252410889
1675156297050510800,2.6925107421875,2.7246015071868896,5.420772075653076,-8.042423248291016
1675156297070510800,2.7125107421875,2.0685901641845703,6.637026309967041,-8.985737800598145
1675156297090510800,2.7325107421875,-2.1954829692840576,2.5450363159179688,-8.250718116760254
1675156297110510800,2.7525107421875,2.808398485183716,5.806238174438477,-8.334515571594238
1675156297130510800,2.7725107421875,5.837363243103027,6.862081527709961,-12.873921394348145
1675156297150510800,2.7925107421875,2.695871114730835,4.766855716705322,-10.508450508117676
1675156297170510800,2.8125107421875,2.698265314102173,3.49314022064209,-10.403105735778809
1675156297190510800,2.8325107421875,0.33997663855552673,6.155791759490967,-9.459790229797363
1675156297210510800,2.8525107421875,-0.16998831927776337,5.095160484313965,-9.234735488891602
1675156297230510800,2.8725107421875,-0.0071826050989329815,3.936067581176758,-8.858845710754395
1675156297250511400,2.892511474609375,-0.8451532125473022,4.0533833503723145,-8.099884033203125
1675156297270511900,2.912511962890625,-1.256955862045288,3.823540210723877,-8.418312072753906
1675156297290513000,2.932512939453125,-1.1683704853057861,4.335899353027344,-8.925883293151855
1675156297310513400,2.952513427734375,0.040701430290937424,5.131073474884033,-9.560346603393555
1675156297330513700,2.972513671875,1.6927006244659424,5.9642558097839355,-10.733505249023438
1675156297350513700,2.992513671875,3.5865142345428467,6.323386192321777,-12.366351127624512
1675156297370513700,3.012513671875,1.8770540952682495,6.340145587921143,-11.107001304626465
1675156297390513700,3.032513671875,1.9297266006469727,5.126285076141357,-11.868356704711914
1675156297410514000,3.052513916015625,4.185064792633057,5.229235649108887,-11.241076469421387
1675156297430513700,3.072513671875,3.2609026432037354,4.398148536682129,-10.07270622253418
1675156297450513700,3.092513671875,6.984185695648193,4.934749126434326,-9.347262382507324
1675156297470513700,3.112513671875,11.102212905883789,4.666299343109131,-10.115801811218262
1675156297490514000,3.132513916015625,9.519645690917969,5.272331237792969,-8.676886558532715
1675156297510513700,3.152513671875,6.383241176605225,5.648221015930176,-5.775113582611084
1675156297530513700,3.172513671875,4.51067590713501,4.680664539337158,-2.8107926845550537
1675156297550513700,3.192513671875,5.42795467376709,4.8482584953308105,-1.4197616577148438
1675156297570514000,3.212513916015625,6.737582683563232,4.220977783203125,-1.6280571222305298
1675156297590514000,3.232513916015625,7.228394031524658,2.8371291160583496,-1.599326729774475
1675156297610514000,3.252513916015625,6.028899192810059,2.7293899059295654,-0.6536170840263367
1675156297630514000,3.272513916015625,5.844545841217041,3.1890766620635986,-0.14604631066322327
1675156297650513200,3.29251318359375,7.3361334800720215,3.5218706130981445,-0.028730420395731926
1675156297670512600,3.3125126953125,8.075942039489746,3.138798475265503,0.17238251864910126
1675156297690511600,3.33251171875,9.268254280090332,2.434903144836426,0.1173158809542656
1675156297710510800,3.3525107421875,9.366415977478027,1.5634137392044067,0.20111294090747833
1675156297730510800,3.3725107421875,9.577106475830078,1.436521053314209,0.43095630407333374
1675156297750511400,3.392511474609375,9.823708534240723,2.1140801906585693,-0.009576806798577309
1675156297770511400,3.412511474609375,9.050381660461426,2.5043349266052246,-0.26815059781074524
1675156297790511400,3.432511474609375,8.68167495727539,2.7030537128448486,-0.3280056416988373
1675156297810511400,3.452511474609375,8.74152946472168,2.628833532333374,-0.4668693244457245
1675156297830511400,3.472511474609375,9.34965705871582,2.5234885215759277,-1.0342950820922852
1675156297850511400,3.492511474609375,10.161291122436523,2.5282769203186035,-1.625662922859192
1675156297870511400,3.512511474609375,10.228328704833984,2.1787235736846924,-1.922544002532959
1675156297890511400,3.532511474609375,9.864410400390625,2.231395959854126,-1.623268723487854
1675156297910511400,3.552511474609375,9.818920135498047,2.4588451385498047,-1.680729627609253
1675156297930511000,3.572510986328125,9.711181640625,2.3127987384796143,-1.7286136150360107
1675156297950511000,3.592510986328125,9.545981407165527,2.4444799423217773,-1.4915876388549805
1675156297970511000,3.612510986328125,9.799766540527344,2.8658595085144043,-1.742978811264038
1675156297990511400,3.632511474609375,9.763854026794434,2.983175277709961,-1.6112977266311646
1675156298010511000,3.652510986328125,9.830891609191895,2.5785553455352783,-1.479616641998291
1675156298030511000,3.672510986328125,9.715970039367676,2.3511061668395996,-1.115697979927063
1675156298050511000,3.692510986328125,9.452607154846191,2.1954829692840576,-0.5650315880775452
1675156298070511400,3.712511474609375,8.918700218200684,1.7836803197860718,0.29209262132644653
1675156298090511000,3.732510986328125,8.475772857666016,1.2186486721038818,0.6943184733390808
1675156298110511000,3.752510986328125,8.389581680297852,1.8722656965255737,-0.24660277366638184
1675156298130511000,3.772510986328125,7.807791233062744,2.540247917175293,-0.8571242094039917
1675156298150511000,3.792510986328125,6.653785705566406,3.023876667022705,-1.4508862495422363
1675156298170511000,3.812510986328125,6.244377136230469,4.110844135284424,-2.9520506858825684
1675156298190511000,3.832510986328125,6.732794284820557,6.2276177406311035,-5.550058841705322
1675156298210511000,3.852510986328125,6.9817914962768555,7.40556526184082,-6.366481781005859
1675156298230511000,3.872510986328125,7.2212114334106445,7.4007768630981445,-5.6554036140441895
1675156298250512000,3.892511962890625,6.8022260665893555,7.154173851013184,-5.1693806648254395
1675156298270512400,3.912512451171875,5.882853031158447,6.8932061195373535,-6.057629585266113
1675156298290513400,3.932513427734375,5.533299446105957,6.79743766784668,-6.747159481048584
1675156298310514200,3.95251416015625,4.874594688415527,6.857293128967285,-6.613084316253662
1675156298330514000,3.972513916015625,3.885789394378662,7.759906768798828,-6.421548366546631
1675156298350513700,3.992513671875,3.7445313930511475,8.825326919555664,-6.086359977722168
1675156298370513700,4.012513671875,4.522646903991699,8.478167533874512,-5.667374610900879
1675156298390513700,4.032513671875,5.1023430824279785,7.307403087615967,-5.305850028991699
1675156298410513700,4.052513671875,3.7684733867645264,7.3145856857299805,-5.466261863708496
1675156298430513700,4.072513671875,3.4117374420166016,7.625831604003906,-5.8349690437316895
1675156298450513700,4.092513671875,3.4117374420166016,8.205228805541992,-4.721365928649902
1675156298470513700,4.112513671875,1.6759412288665771,8.090307235717773,-3.3039982318878174
1675156298490513700,4.132513671875,1.256955862045288,7.829339027404785,-3.0813376903533936
1675156298510513700,4.152513671875,1.37906014919281,8.514080047607422,-3.3854012489318848
1675156298530513700,4.172513671875,1.1348515748977661,8.597877502441406,-3.670311212539673
1675156298550513700,4.192513671875,1.3072341680526733,9.064746856689453,-3.598485231399536
1675156298570513700,4.212513671875,2.2026655673980713,9.534010887145996,-3.7038300037384033
1675156298590513700,4.232513671875,1.4700398445129395,9.536404609680176,-3.0837318897247314
1675156298610513700,4.252513671875,0.8427590131759644,8.087912559509277,-2.693476915359497
1675156298630513700,4.272513671875,-0.05985504388809204,7.381623268127441,-1.6543933153152466
1675156298650513700,4.292513671875,-0.15083470940589905,7.9322896003723145,-1.6615760326385498
1675156298670513000,4.312512939453125,0.646434485912323,8.540416717529297,-2.9688100814819336
1675156298690512100,4.33251220703125,1.4891934394836426,9.095871925354004,-3.4165258407592773
1675156298710511600,4.35251171875,1.3192051649093628,9.009679794311523,-2.8778305053710938
1675156298730511400,4.372511474609375,0.7565677165985107,9.488520622253418,-2.229001760482788
1675156298750511400,4.392511474609375,-0.5578489899635315,9.730335235595703,-1.434126853942871
1675156298770511400,4.412511474609375,-1.0247182846069336,9.665691375732422,-1.2473790645599365
1675156298790511400,4.432511474609375,0.090979665517807,10.735899925231934,-2.2697031497955322
1675156298810511400,4.452511474609375,1.5179238319396973,11.061511039733887,-2.7078421115875244
1675156298830511400,4.472511474609375,1.173158884048462,10.144532203674316,-2.7006595134735107
1675156298850511400,4.492511474609375,-0.3687070608139038,10.417470932006836,-2.3511061668395996
1675156298870511400,4.512511474609375,-0.49559974670410156,10.767024040222168,-2.0207061767578125
1675156298890511400,4.532511474609375,-0.47405192255973816,11.128548622131348,-2.676717519760132
1675156298910511400,4.552511474609375,0.4141969084739685,11.14770221710205,-3.1483752727508545
1675156298930511400,4.572511474609375,0.9385270476341248,11.480496406555176,-2.6839001178741455
1675156298950511400,4.592511474609375,0.667982280254364,11.640908241271973,-2.2673089504241943
1675156298970511400,4.612511474609375,0.6943184733390808,11.415852546691895,-1.8698714971542358
1675156298990511400,4.632511474609375,1.0007762908935547,10.922647476196289,-2.1092917919158936
1675156299010511400,4.652511474609375,1.4077905416488647,11.480496406555176,-2.631227731704712
1675156299030511400,4.672511474609375,1.9273324012756348,12.193968772888184,-2.4420857429504395
1675156299050511400,4.692511474609375,1.4317326545715332,12.653655052185059,-2.0901381969451904
1675156299070511400,4.712511474609375,0.5123591423034668,12.012009620666504,-1.8626888990402222
1675156299090511400,4.732511474609375,1.0271124839782715,11.150096893310547,-1.7190368175506592
1675156299110511400,4.752511474609375,1.1468225717544556,11.32966136932373,-1.623268723487854
1675156299130511400,4.772511474609375,0.689530074596405,12.438177108764648,-1.5682021379470825
1675156299150511400,4.792511474609375,0.3471592366695404,12.873921394348145,-1.8722656965255737
1675156299170511400,4.812511474609375,0.7805097699165344,12.639289855957031,-1.941697597503662
1675156299190511400,4.832511474609375,1.1180921792984009,12.335226058959961,-1.6328455209732056
1675156299210511400,4.852511474609375,0.5099649429321289,11.674427032470703,-1.4748282432556152
1675156299230511400,4.872511474609375,0.20350714027881622,10.589853286743164,-1.216254472732544
1675156299250511400,4.892511474609375,0.6153098344802856,10.278607368469238,-1.1803414821624756
1675156299270512000,4.91251220703125,1.3862427473068237,10.723928451538086,-1.139639973640442
1675156299290513000,4.932512939453125,1.7836803197860718,10.862792015075684,-1.1659762859344482
1675156299310513400,4.952513427734375,1.7741034030914307,10.881945610046387,-1.2880805730819702
1675156299330513700,4.972513671875,2.142810583114624,10.043975830078125,-0.9672574996948242
1675156299350513700,4.992513671875,1.5682021379470825,9.378387451171875,-1.1420341730117798
1675156299370513700,5.012513671875,1.3958195447921753,9.500492095947266,-1.6184803247451782
1675156299390513700,5.032513671875,0.5650315880775452,10.0487642288208,-1.7860745191574097
1675156299410513700,5.052513671875,2.1930887699127197,10.328885078430176,-2.3918075561523438
1675156299430513700,5.072513671875,0.016759412363171577,10.436624526977539,-1.7190368175506592
1675156299450513700,5.092513671875,0.5315127968788147,8.834903717041016,-0.8571242094039917
1675156299470513700,5.112513671875,0.3447650372982025,8.078335762023926,-1.1516109704971313
1675156299490513700,5.132513671875,0.038307227194309235,8.573935508728027,-1.0223240852355957
1675156299510513700,5.152513671875,-0.0454898327589035,8.547599792480469,-1.259350061416626
1675156299530513700,5.172513671875,0.3878606855869293,8.382399559020996,-1.6735470294952393
1675156299550513700,5.192513671875,0.5530605912208557,9.251494407653809,-1.0989385843276978
1675156299570513700,5.212513671875,0.5913678407669067,9.186851501464844,-1.0773907899856567
1675156299590513700,5.232513671875,0.8643068075180054,9.009679794311523,-1.5466543436050415
1675156299610513700,5.252513671875,1.5729905366897583,8.777442932128906,-1.4700398445129395
1675156299630513700,5.272513671875,1.2282254695892334,9.210793495178223,-1.3503297567367554
1675156299650513000,5.292512939453125,2.3127987384796143,10.127772331237793,-1.1971008777618408
1675156299670512600,5.3125126953125,2.3558945655822754,10.678439140319824,-0.4812345504760742
1675156299690511600,5.33251171875,1.4173674583435059,12.038345336914062,0.8427590131759644
1675156299710510800,5.3525107421875,1.680729627609253,12.641684532165527,0.0933738648891449
1675156299730510800,5.3725107421875,3.9384617805480957,10.151714324951172,-0.524330198764801
1675156299750510300,5.39251025390625,3.002328872680664,8.743924140930176,-0.07900865375995636
1675156299770510300,5.41251025390625,3.184288263320923,8.418312072753906,-1.0079588890075684
1675156299790510300,5.43251025390625,7.585130214691162,8.439860343933105,-0.8571242094039917
1675156299810510300,5.45251025390625,6.6920928955078125,8.032846450805664,0.35913026332855225
1675156299830510300,5.47251025390625,3.9695863723754883,7.791031837463379,1.5658079385757446
1675156299850510300,5.49251025390625,5.904400825500488,7.491756439208984,-0.49320554733276367
1675156299870510300,5.51251025390625,6.179733753204346,6.93151330947876,-1.3862427473068237
1675156299890510300,5.53251025390625,4.7836151123046875,7.273883819580078,-1.194706678390503
1675156299910510300,5.55251025390625,3.002328872680664,7.395988464355469,-2.0159177780151367
1675156299930510300,5.57251025390625,3.5410242080688477,6.107907772064209,-3.883395195007324
1675156299950510300,5.59251025390625,3.2154128551483154,3.670311212539673,-4.400542736053467
1675156299970510300,5.61251025390625,2.8993782997131348,5.801449775695801,-3.9839515686035156
1675156299990510300,5.63251025390625,7.01052188873291,8.542811393737793,-3.5625722408294678
1675156300010510300,5.65251025390625,9.40951156616211,8.382399559020996,-3.383007049560547
1675156300030510300,5.67251025390625,9.771036148071289,4.730942726135254,-2.561795711517334
1675156300050510300,5.69251025390625,8.583512306213379,2.2649147510528564,-3.339911460876465
1675156300070510300,5.71251025390625,2.492363929748535,8.779836654663086,-5.693710803985596
1675156300090510300,5.73251025390625,7.46302604675293,5.28190803527832,-6.31141471862793
1675156300110510300,5.75251025390625,6.696881294250488,1.4700398445129395,-7.0248870849609375
1675156300130510300,5.77251025390625,5.135861873626709,1.8100165128707886,-8.365639686584473
1675156300150510300,5.79251025390625,3.6176388263702393,0.689530074596405,-8.971372604370117
1675156300170510300,5.81251025390625,5.468656063079834,5.425560474395752,-12.186785697937012
1675156300190510300,5.83251025390625,6.88602352142334,7.386411666870117,-15.663466453552246
1675156300210510300,5.85251025390625,6.421548366546631,7.807791233062744,-17.279552459716797
1675156300230510300,5.87251025390625,4.273650169372559,6.634632110595703,-16.374544143676758
1675156300250511000,5.892510986328125,2.073378562927246,5.782296180725098,-13.391069412231445
1675156300270511400,5.912511474609375,1.0295066833496094,4.728548526763916,-10.13974380493164
1675156300290512400,5.932512451171875,1.314416766166687,4.333505153656006,-7.944260597229004
1675156300310513200,5.95251318359375,1.0797849893569946,4.901230335235596,-6.608295917510986
1675156300330512600,5.9725126953125,0.1628057211637497,4.8937482833862305,-6.012139797210693
1675156300350513400,5.992513427734375,0.07182604819536209,3.6822822093963623,-6.076783180236816
1675156300370513400,6.012513427734375,0.608127236366272,2.3558945655822754,-7.618649005889893
1675156300390513400,6.032513427734375,0.5626373887062073,2.406172752380371,-9.56274127960205
1675156300410513400,6.052513427734375,3.2297780513763428,1.8315643072128296,-10.575488090515137
1675156300430513200,6.07251318359375,13.012785911560059,-1.0678139925003052,-9.526827812194824
1675156300450513200,6.09251318359375,-0.26815059781074524,4.244919776916504,-9.179668426513672
1675156300470513200,6.11251318359375,-4.398148536682129,5.712864398956299,-8.31057357788086
1675156300490513400,6.132513427734375,-4.668693542480469,4.034229755401611,-7.771877765655518
1675156300510513200,6.15251318359375,-3.1052796840667725,2.078166961669922,-8.25311279296875
1675156300530513200,6.17251318359375,-0.6943184733390808,-0.8547300100326538,-9.557952880859375
1675156300550513200,6.19251318359375,0.3878606855869293,-5.983409404754639,-11.059117317199707
1675156300570513400,6.212513427734375,-0.038307227194309235,-8.001721382141113,-12.045528411865234
1675156300590513400,6.232513427734375,-3.7900211811065674,-0.6344634294509888,-11.219528198242188
1675156300610513400,6.252513427734375,-2.736572504043579,1.7286136150360107,-9.198822021484375
1675156300630513400,6.272513427734375,-1.8195933103561401,0.5195417404174805,-9.632172584533691
1675156300650512600,6.2925126953125,-0.7230489253997803,-0.49559974670410156,-10.178050994873047
1675156300670512000,6.31251220703125,-0.44532153010368347,-0.31603461503982544,-10.101436614990234
1675156300690511000,6.332510986328125,-1.6639702320098877,0.5506663918495178,-9.83568000793457
1675156300710510300,6.35251025390625,-1.9105730056762695,0.7613561153411865,-9.811738014221191
1675156300730509800,6.372509765625,-0.7829039692878723,-0.47884035110473633,-8.727164268493652
1675156300750509800,6.392509765625,-1.5705963373184204,0.20350714027881622,-9.823708534240723
1675156300770509800,6.412509765625,-1.3431471586227417,0.22026655077934265,-9.950601577758789
1675156300790509800,6.432509765625,-1.2665326595306396,0.2561795711517334,-9.864410400390625
1675156300810509800,6.452509765625,-1.3407529592514038,0.3902548849582672,-9.694421768188477
1675156300830509800,6.472509765625,-1.9560627937316895,0.9624691009521484,-9.771036148071289
1675156300850509800,6.492509765625,-2.296039342880249,1.3503297567367554,-10.65210247039795
1675156300870509800,6.512509765625,-2.2888567447662354,0.6488286852836609,-12.366351127624512
1675156300890509800,6.532509765625,-2.293645143508911,-0.2082955539226532,-14.387057304382324
1675156300910509800,6.552509765625,-1.965639591217041,-1.4724340438842773,-16.38890838623047
1675156300930510300,6.57251025390625,-0.26575639843940735,-2.315192937850952,-18.799869537353516
1675156300950510300,6.59251025390625,0.090979665517807,-1.4652514457702637,-20.03049087524414
1675156300970510300,6.61251025390625,-0.7110779285430908,3.090914487838745,-23.49489974975586
1675156300990510300,6.63251025390625,0.002394201699644327,1.9943699836730957,-16.783952713012695
1675156301010510300,6.65251025390625,-1.745373010635376,0.507570743560791,-0.49320554733276367
1675156301030510300,6.67251025390625,-5.286696434020996,1.9512743949890137,2.6144683361053467
1675156301050510300,6.69251025390625,-3.706224203109741,-1.5275006294250488,3.8786067962646484
1675156301070510300,6.71251025390625,4.6734819412231445,-7.441478252410889,7.889194011688232
1675156301090510300,6.73251025390625,5.528511047363281,-6.323386192321777,-2.806004285812378
1675156301110510300,6.75251025390625,-0.15562310814857483,-2.0231003761291504,-11.571475982666016
1675156301130510300,6.77251025390625,-2.0590133666992188,2.5665841102600098,-15.421651840209961
1675156301150510300,6.79251025390625,-0.6248866319656372,3.359065055847168,-14.310442924499512
1675156301170510300,6.81251025390625,-2.2409727573394775,1.2521674633026123,-9.122207641601562
1675156301190510300,6.83251025390625,-1.946485996246338,0.6153098344802856,-8.79659652709961
1675156301210510300,6.85251025390625,-1.721431016921997,1.1659762859344482,-10.027215957641602
1675156301230510300,6.87251025390625,-1.745373010635376,1.0869675874710083,-9.909899711608887
1675156301250510800,6.8925107421875,-2.188300371170044,1.1875240802764893,-9.694421768188477
1675156301270511600,6.91251171875,-1.7884687185287476,0.7924807667732239,-10.029610633850098
1675156301290512400,6.932512451171875,-1.3718775510787964,0.3878606855869293,-10.331279754638672
1675156301310513200,6.95251318359375,-1.5729905366897583,1.0606313943862915,-9.639355659484863
1675156301330513700,6.972513671875,-1.357512354850769,1.2856862545013428,-9.141361236572266
1675156301350513700,6.992513671875,-1.2234370708465576,0.608127236366272,-9.742305755615234
1675156301370513700,7.012513671875,-1.1635819673538208,0.06703764945268631,-10.204386711120605
1675156301390513700,7.032513671875,-1.05105459690094,0.4357447028160095,-10.132560729980469
1675156301410513700,7.052513671875,-1.1899182796478271,0.8834604024887085,-10.003273963928223
1675156301430513700,7.072513671875,-1.0079588890075684,0.8786720037460327,-9.92905330657959
1675156301450513700,7.092513671875,-0.8906430602073669,0.545877993106842,-9.921871185302734
1675156301470513700,7.112513671875,-0.849941611289978,0.4118026793003082,-9.900322914123535
1675156301490513700,7.132513671875,-0.9576807022094727,0.6919242739677429,-9.976937294006348
1675156301510513700,7.152513671875,-0.9959878921508789,0.9624691009521484,-10.010457038879395
1675156301530513700,7.172513671875,-0.950498104095459,1.1563993692398071,-10.05115795135498
1675156301550513700,7.192513671875,-0.7757213711738586,0.9385270476341248,-10.000880241394043
1675156301570513700,7.212513671875,-0.6153098344802856,0.6177040338516235,-9.96257209777832
1675156301590513700,7.232513671875,-0.667982280254364,0.5530605912208557,-9.876380920410156
1675156301610513700,7.252513671875,-0.8595184087753296,0.9864110946655273,-9.878775596618652
1675156301630513700,7.272513671875,-0.790086567401886,0.6392518281936646,-9.950601577758789
1675156301650513000,7.292512939453125,-0.9959878921508789,0.47644615173339844,-9.948206901550293
1675156301670512400,7.312512451171875,-0.933738648891449,0.45489832758903503,-9.976937294006348
1675156301690511400,7.332511474609375,-0.9145850539207458,0.8188169598579407,-9.888352394104004
1675156301710510800,7.3525107421875,-0.8595184087753296,0.9313444495201111,-9.914688110351562
1675156301730510800,7.3725107421875,-0.8547300100326538,0.5650315880775452,-10.26663589477539
1675156301750510800,7.3925107421875,-0.8523358106613159,0.5195417404174805,-10.276212692260742
1675156301770510800,7.4125107421875,-0.7182605266571045,0.44532153010368347,-10.0487642288208
1675156301790510800,7.4325107421875,-0.730231523513794,0.4572925269603729,-9.902717590332031
1675156301810510800,7.4525107421875,-0.586579442024231,0.28730419278144836,-9.854833602905273
1675156301830510800,7.4725107421875,-0.5937620401382446,0.2849099934101105,-9.938630104064941
1675156301850510800,7.4925107421875,-0.5195417404174805,0.35913026332855225,-9.996091842651367
1675156301870510800,7.5125107421875,-0.5003881454467773,0.42616790533065796,-9.936236381530762
1675156301890510800,7.5325107421875,-0.4165911078453064,0.4836287498474121,-9.826103210449219
1675156301910510800,7.5525107421875,-0.2537853717803955,0.4884171485900879,-9.845256805419922
1675156301930510800,7.5725107421875,-0.2992752194404602,0.5410895943641663,-10.032004356384277
1675156301950510800,7.5925107421875,-0.21547815203666687,0.5578489899635315,-10.022427558898926
1675156301970510800,7.6125107421875,-0.33279404044151306,0.5530605912208557,-9.878775596618652
1675156301990510800,7.6325107421875,-0.47405192255973816,0.6919242739677429,-10.01524543762207
1675156302010510800,7.6525107421875,-0.49320554733276367,0.667982280254364,-10.041581153869629
1675156302030510800,7.6725107421875,-0.6153098344802856,0.7254431247711182,-10.07509994506836
1675156302050510800,7.6925107421875,-0.6105214357376099,0.8451532125473022,-9.96257209777832
1675156302070510800,7.7125107421875,-0.6248866319656372,0.8475474119186401,-9.763854026794434
1675156302090510800,7.7325107421875,-0.6272808313369751,0.6153098344802856,-9.842862129211426
1675156302110510800,7.7525107421875,-0.6655880808830261,0.7182605266571045,-10.000880241394043
1675156302130510800,7.7725107421875,-0.569819986820221,0.689530074596405,-9.921871185302734
1675156302150510800,7.7925107421875,-0.4213795065879822,0.6320692300796509,-9.821314811706543
1675156302170510800,7.8125107421875,-0.2585737705230713,0.5195417404174805,-9.888352394104004
1675156302190510800,7.8325107421875,-0.21547815203666687,0.4381389021873474,-9.8691987991333
1675156302210510800,7.8525107421875,-0.12928688526153564,0.19871874153614044,-9.998485565185547
1675156302230510800,7.8725107421875,-0.0071826050989329815,0.3232172429561615,-10.089465141296387
1675156302250511600,7.89251171875,-0.08858546614646912,0.49559974670410156,-9.967360496520996
1675156302270512000,7.91251220703125,-0.035913024097681046,0.47405192255973816,-9.83568000793457
1675156302290513200,7.93251318359375,0.035913024097681046,0.4189853072166443,-9.912294387817383
1675156302310513700,7.952513671875,0.05985504388809204,0.395043283700943,-10.07509994506836
1675156302330513700,7.972513671875,-0.12449848651885986,0.4644751250743866,-10.041581153869629
1675156302350513700,7.992513671875,-0.12449848651885986,0.4405331015586853,-9.969755172729492
1675156302370513700,8.012513671875,-0.07182604819536209,0.45489832758903503,-9.993697166442871
1675156302390513700,8.032513671875,-0.043095629662275314,0.4692635238170624,-9.969755172729492
1675156302410513700,8.052513671875,-0.026336219161748886,0.4620809257030487,-9.991303443908691
1675156302430513700,8.072513671875,0.06464344263076782,0.4836287498474121,-9.974543571472168
1675156302450513700,8.092513671875,0.038307227194309235,0.3998316824436188,-9.945813179016113
1675156302470513700,8.112513671875,0.028730420395731926,0.2992752194404602,-9.933841705322266
1675156302490513700,8.132513671875,-0.011971008032560349,0.40701428055763245,-10.010457038879395
1675156302510513700,8.152513671875,0.0694318488240242,0.3280056416988373,-10.022427558898926
1675156302530513700,8.172513671875,0.07182604819536209,0.17717093229293823,-9.967360496520996
1675156302550513700,8.192513671875,0.033518824726343155,0.3064578175544739,-9.98412036895752
1675156302570513700,8.212513671875,0.07182604819536209,0.35673606395721436,-9.909899711608887
1675156302590513700,8.232513671875,0.16759411990642548,0.3280056416988373,-9.921871185302734
1675156302610513700,8.252513671875,0.10295066982507706,0.2801215946674347,-9.878775596618652
1675156302630513700,8.272513671875,0.10773907601833344,0.2777273952960968,-10.003273963928223
1675156302650513400,8.292513427734375,0.13407529890537262,0.2298433631658554,-10.024822235107422
1675156302670513000,8.312512939453125,0.08140286058187485,0.33279404044151306,-9.972148895263672
1675156302690512000,8.332511962890624,-0.011971008032560349,0.4620809257030487,-9.979331970214844
1675156302710511000,8.352510986328125,-0.023942016065120697,0.33997663855552673,-9.993697166442871
1675156302730511000,8.372510986328125,0,0.2944868206977844,-9.890746116638184
1675156302750510800,8.3925107421875,0.038307227194309235,0.42377370595932007,-9.888352394104004
1675156302770510800,8.4125107421875,0.1412578970193863,0.3687070608139038,-9.900322914123535
1675156302790510800,8.4325107421875,0.14844051003456116,0.36152446269989014,-9.964966773986816
1675156302810510800,8.4525107421875,0.06224924325942993,0.3711012601852417,-10.01524543762207
1675156302830510800,8.4725107421875,0.043095629662275314,0.3878606855869293,-9.991303443908691
1675156302850510800,8.4925107421875,0.05506663769483566,0.3758896589279175,-9.981725692749023
1675156302870510800,8.5125107421875,0.07422025501728058,0.26336219906806946,-10.003273963928223
1675156302890510800,8.5325107421875,0.011971008032560349,0.21787235140800476,-10.0487642288208
1675156302910510800,8.5525107421875,-0.0071826050989329815,0.2777273952960968,-10.120590209960938
1675156302930510800,8.5725107421875,-0.038307227194309235,0.2777273952960968,-10.063129425048828
1675156302950510800,8.5925107421875,-0.026336219161748886,0.3734954595565796,-10.024822235107422
1675156302970510800,8.6125107421875,-0.07182604819536209,0.395043283700943,-9.988908767700195
1675156302990510800,8.6325107421875,0.002394201699644327,0.3902548849582672,-10.055946350097656
1675156303010510800,8.6525107421875,0.038307227194309235,0.5410895943641663,-10.032004356384277
1675156303030510800,8.6725107421875,-0.026336219161748886,0.6823474764823914,-10.060734748840332
1675156303050510800,8.6925107421875,0,0.3663128614425659,-10.103830337524414
1675156303070510800,8.7125107421875,-0.09576806426048279,0.2513911724090576,-10.032004356384277
1675156303090510800,8.7325107421875,-0.08379705995321274,0.40701428055763245,-9.979331970214844
1675156303110510800,8.7525107421875,0.06703764945268631,0.524330198764801,-9.967360496520996
1675156303130510800,8.7725107421875,0.031124621629714966,0.4812345504760742,-9.917082786560059
1675156303150510800,8.7925107421875,-0.035913024097681046,0.4812345504760742,-9.988908767700195
1675156303170510800,8.8125107421875,-0.0694318488240242,0.36152446269989014,-10.103830337524414
1675156303190510800,8.8325107421875,-0.05985504388809204,0.2825157940387726,-10.101436614990234
1675156303210510800,8.8525107421875,-0.06464344263076782,0.38546648621559143,-10.000880241394043
1675156303230510800,8.8725107421875,-0.043095629662275314,0.40222588181495667,-9.931447982788086
1675156303250511000,8.892510986328125,-0.023942016065120697,0.38546648621559143,-10.01763916015625
1675156303270511600,8.91251171875,-0.05267243832349777,0.28730419278144836,-10.13974380493164
1675156303290512600,8.9325126953125,-0.028730420395731926,0.363918662071228,-10.101436614990234
1675156303310513400,8.952513427734376,-0.038307227194309235,0.4165911078453064,-9.974543571472168
1675156303330513400,8.972513427734375,0.002394201699644327,0.3878606855869293,-9.883563995361328
1675156303350513700,8.992513671875,0.028730420395731926,0.3064578175544739,-9.919476509094238
1675156303370513700,9.012513671875,-0.0071826050989329815,0.2777273952960968,-9.998485565185547
1675156303390513700,9.032513671875,-0.0933738648891449,0.2585737705230713,-10.101436614990234
1675156303410513700,9.052513671875,-0.08619125932455063,0.2801215946674347,-10.132560729980469
1675156303430513700,9.072513671875,-0.07422025501728058,0.35913026332855225,-10.005668640136719
1675156303450513700,9.092513671875,-0.12210428714752197,0.3878606855869293,-9.912294387817383
1675156303470513700,9.112513671875,-0.15562310814857483,0.49559974670410156,-9.952995300292969
1675156303490513700,9.132513671875,-0.11013327538967133,0.4812345504760742,-10.032004356384277
1675156303510513700,9.152513671875,0.12689268589019775,0.05746084079146385,-10.161291122436523
1675156303530513700,9.172513671875,0.009576806798577309,0.8212111592292786,-9.955389976501465
1675156303550513700,9.192513671875,-0.028730420395731926,0.26575639843940735,-9.828496932983398
1675156303570513700,9.212513671875,-0.10534487664699554,0.5219359993934631,-9.991303443908691
1675156303590513700,9.232513671875,-0.15562310814857483,0.43335050344467163,-9.979331970214844
1675156303610513700,9.252513671875,0.033518824726343155,0.090979665517807,-9.931447982788086
1675156303630513700,9.272513671875,-0.06224924325942993,0.028730420395731926,-10.113407135009766
1675156303650513200,9.29251318359375,-0.15801730751991272,0.1173158809542656,-10.125378608703613
1675156303670513200,9.31251318359375,-0.18914192914962769,0.24899697303771973,-9.955389976501465
1675156303690512100,9.33251220703125,-0.16519992053508759,0.4812345504760742,-9.826103210449219
1675156303710511400,9.352511474609376,-0.23702596127986908,0.5554547905921936,-9.78061294555664
1675156303730511400,9.372511474609375,-0.2968810200691223,0.5817909836769104,-9.972148895263672
1675156303750511000,9.392510986328125,-0.19153612852096558,0.47644615173339844,-10.134955406188965
1675156303770511000,9.412510986328124,-0.21308395266532898,0.3758896589279175,-10.089465141296387
1675156303790511000,9.432510986328126,-0.05506663769483566,0.20111294090747833,-10.089465141296387
1675156303810511000,9.452510986328125,0.033518824726343155,0.19871874153614044,-10.055946350097656
1675156303830511000,9.472510986328125,0.043095629662275314,0.2944868206977844,-9.821314811706543
1675156303850511000,9.492510986328124,-0.0933738648891449,0.38546648621559143,-9.818920135498047
1675156303870511000,9.512510986328126,-0.14365209639072418,0.395043283700943,-9.993697166442871
1675156303890511000,9.532510986328125,-0.12689268589019775,-0.011971008032560349,-10.10622501373291
1675156303910511000,9.552510986328125,-0.2849099934101105,0.05985504388809204,-10.07270622253418
1675156303930511000,9.572510986328124,-0.26575639843940735,0.17956513166427612,-10.127772331237793
1675156303950511000,9.592510986328126,-0.30885201692581177,0.3016694188117981,-10.201992988586426
1675156303970511000,9.612510986328125,-0.18914192914962769,0.45250412821769714,-10.283395767211914
1675156303990511000,9.632510986328125,-0.16998831927776337,0.4213795065879822,-10.122983932495117
1675156304010511000,9.652510986328124,-0.047884032130241394,0.31603461503982544,-10.029610633850098
1675156304030511000,9.672510986328126,0.0933738648891449,-0.002394201699644327,-10.058341026306152
1675156304050511000,9.692510986328125,0.12928688526153564,0.363918662071228,-10.01763916015625
1675156304070511000,9.712510986328125,0.18914192914962769,0.6607996821403503,-9.83807373046875
1675156304090511000,9.732510986328125,0.24660277366638184,0.8044517636299133,-9.833285331726074
1675156304110511000,9.752510986328126,0.23942017555236816,0.8834604024887085,-10.077494621276855
1675156304130511000,9.772510986328125,0.3232172429561615,0.4812345504760742,-10.084676742553711
1675156304150511000,9.792510986328125,0.3447650372982025,0.26815059781074524,-9.878775596618652
1675156304170511000,9.812510986328125,0.2777273952960968,0.6344634294509888,-9.864410400390625
1675156304190511000,9.832510986328124,0.17956513166427612,0.828393816947937,-10.000880241394043
1675156304210511000,9.852510986328125,0.15562310814857483,0.27054479718208313,-10.249876976013184
1675156304230511000,9.872510986328125,0.033518824726343155,0.47884035110473633,-10.190021514892578
1675156304250374000,9.892373779296875,0.22744916379451752,0.6009446382522583,-10.046369552612305
1675156304270374000,9.912373779296875,0.181959331035614,0.40701428055763245,-10.079888343811035
1675156304290374700,9.932374755859374,0.10773907601833344,0.17956513166427612,-10.201992988586426
1675156304310375400,9.95237548828125,0.026336219161748886,0.05506663769483566,-10.099041938781738
1675156304330375400,9.97237548828125,-0.1364694982767105,0.24181437492370605,-9.715970039367676
1675156304350375700,9.992375732421875,0.023942016065120697,0.4620809257030487,-9.909899711608887
1675156304370375700,10.012375732421875,0.11013327538967133,0.40462008118629456,-9.941024780273438
1675156304390375700,10.032375732421874,0.3447650372982025,0.3758896589279175,-10.127772331237793
1675156304410375700,10.052375732421876,0.35673606395721436,0.2849099934101105,-10.130167007446289
1675156304430375700,10.072375732421875,0.3663128614425659,0.19871874153614044,-10.13974380493164
1675156304450375700,10.092375732421875,0.40701428055763245,0.09816227108240128,-10.144532203674316
1675156304470375700,10.112375732421874,0.40940847992897034,0.011971008032560349,-10.10861873626709
1675156304490375700,10.132375732421876,0.43095630407333374,-0.040701430290937424,-10.034399032592773
1675156304510375700,10.152375732421875,0.3423708379268646,0.22266076505184174,-10.053552627563477
1675156304530375700,10.172375732421875,0.45489832758903503,0.40462008118629456,-9.998485565185547
1675156304550375700,10.192375732421874,0.524330198764801,0.304063618183136,-9.603442192077637
1675156304570375700,10.212375732421876,0.5793967843055725,0.5746083855628967,-9.6896333694458
1675156304590375700,10.232375732421875,0.6129156351089478,0.9217676520347595,-9.854833602905273
1675156304610375700,10.252375732421875,0.6440402865409851,0.6440402865409851,-9.905111312866211
1675156304630375700,10.272375732421875,0.5961562395095825,0.4644751250743866,-9.845256805419922
1675156304650375200,10.292375244140626,0.38546648621559143,0.6009446382522583,-9.811738014221191
1675156304670374400,10.31237451171875,0.5363011956214905,0.08140286058187485,-9.830891609191895
1675156304690373600,10.33237353515625,0.363918662071228,-0.1388636976480484,-9.854833602905273
1675156304710372900,10.352372802734376,0.45489832758903503,-0.1628057211637497,-9.773430824279785
1675156304730339600,10.372339599609376,0.5674257874488831,-0.33997663855552673,-9.943418502807617
1675156304750305800,10.392305908203125,0.5578489899635315,-0.3519476354122162,-9.981725692749023
1675156304770272500,10.4122724609375,0.5530605912208557,-0.2825157940387726,-10.118195533752441
1675156304790239200,10.4322392578125,0.5937620401382446,-0.2106897532939911,-10.206781387329102
1675156304810206000,10.4522060546875,0.6129156351089478,-0.304063618183136,-10.19720458984375
1675156304830172400,10.47217236328125,0.8092401623725891,-0.2513911724090576,-9.938630104064941
1675156304850139100,10.49213916015625,0.706289529800415,-0.26575639843940735,-9.957783699035645
1675156304870105900,10.51210595703125,0.5817909836769104,-0.45010992884635925,-10.065523147583008
1675156304890072600,10.532072509765625,0.5410895943641663,-0.5434837937355042,-10.036792755126953
1675156304910039300,10.552039306640625,0.5147533416748047,-0.4429273009300232,-9.931447982788086
1675156304930005800,10.572005859375,0.3926490843296051,-0.3663128614425659,-9.98412036895752
1675156304949972500,10.591972412109374,0.33518823981285095,-0.37828385829925537,-10.137349128723145
1675156304969939200,10.611939208984374,0.28730419278144836,-0.608127236366272,-10.3456449508667
1675156304989906000,10.631906005859374,0.29209262132644653,-0.7350199222564697,-10.417470932006836
1675156305009872400,10.651872314453126,0.4644751250743866,-0.8164227604866028,-10.187627792358398
1675156305029839000,10.671839111328126,0.47405192255973816,-0.7374141216278076,-9.873987197875977
1675156305049805800,10.691805908203126,0.29209262132644653,-0.646434485912323,-9.897929191589355
1675156305069772500,10.7117724609375,0.31603461503982544,-0.6105214357376099,-9.991303443908691
1675156305089739300,10.7317392578125,0.23702596127986908,-0.6536170840263367,-10.003273963928223
1675156305109705700,10.751705810546875,0.2059013396501541,-0.6871358752250671,-9.85962200164795
1675156305129672400,10.77167236328125,0.23942017555236816,-0.629675030708313,-9.668086051940918
1675156305149639200,10.79163916015625,0.09576806426048279,-0.49559974670410156,-9.651326179504395
1675156305169606000,10.81160595703125,0.011971008032560349,-0.5626373887062073,-9.634567260742188
1675156305189572600,10.831572509765625,0.090979665517807,-0.7565677165985107,-9.706393241882324
1675156305209539000,10.8515390625,0.5650315880775452,-0.6536170840263367,-10.19720458984375
1675156305229505800,10.871505859375,0.3998316824436188,0.12210428714752197,-10.3456449508667
1675156305249473300,10.891473388671875,0.26336219906806946,-0.011971008032560349,-9.857227325439453
1675156305269440500,10.9114404296875,0.7637503147125244,-0.3998316824436188,-10.204386711120605
1675156305289408000,10.931407958984375,0.9768342971801758,-0.21787235140800476,-10.297760963439941
1675156305309375500,10.95137548828125,1.01753568649292,0.05506663769483566,-10.000880241394043
1675156305329375500,10.97137548828125,0.9888052940368652,0.06224924325942993,-10.223540306091309
1675156305349375700,10.991375732421876,1.05105459690094,-0.2537853717803955,-10.070311546325684
1675156305369375700,11.011375732421875,1.2449848651885986,-0.33997663855552673,-9.900322914123535
1675156305389375700,11.031375732421875,1.359906554222107,-0.17956513166427612,-9.742305755615234
1675156305409375700,11.051375732421874,1.5059528350830078,0.033518824726343155,-9.914688110351562
1675156305429375700,11.071375732421876,1.2856862545013428,0.10295066982507706,-10.14213752746582
1675156305449375700,11.091375732421875,1.2689268589019775,0.2346317619085312,-10.276212692260742
1675156305469375700,11.111375732421875,1.316810965538025,0.2992752194404602,-10.245088577270508
1675156305489375700,11.131375732421875,1.4532804489135742,0.4165911078453064,-10.087071418762207
1675156305509375700,11.151375732421876,1.4724340438842773,0.44532153010368347,-9.876380920410156
1675156305529375700,11.171375732421875,1.4891934394836426,0.35434186458587646,-9.833285331726074
1675156305549375700,11.191375732421875,1.403002142906189,0.4429273009300232,-9.725546836853027
1675156305569375700,11.211375732421875,1.3694833517074585,0.33758243918418884,-9.852438926696777
1675156305589375700,11.231375732421874,1.1037269830703735,0.1388636976480484,-9.9865140914917
1675156305609375700,11.251375732421875,0.7996633648872375,0.12210428714752197,-10.113407135009766
1675156305629375700,11.271375732421875,0.6823474764823914,0.28969839215278625,-10.228328704833984
1675156305649375000,11.291375,0.5171475410461426,0.3447650372982025,-10.024822235107422
1675156305669374500,11.31137451171875,0.19871874153614044,0.395043283700943,-9.948206901550293
1675156305689373400,11.33137353515625,0.3758896589279175,0.5817909836769104,-9.845256805419922
1675156305709373000,11.351373046875,0.646434485912323,0.569819986820221,-9.725546836853027
1675156305729372200,11.3713720703125,0.8786720037460327,0.6153098344802856,-9.641749382019043
1675156305749371400,11.391371337890625,1.1109095811843872,0.5841852426528931,-9.481337547302246
1675156305769371400,11.411371337890625,1.0845733880996704,0.6655880808830261,-9.419088363647461
1675156305789371400,11.431371337890624,0.811634361743927,0.7781155705451965,-9.581894874572754
1675156305809371400,11.451371337890626,0.569819986820221,0.6847416758537292,-9.842862129211426
1675156305829371400,11.471371337890625,0.5339069962501526,0.363918662071228,-10.206781387329102
1675156305849371400,11.491371337890625,0.7398083209991455,0.21547815203666687,-10.185233116149902
1675156305869371400,11.511371337890624,0.7422025203704834,0.40940847992897034,-10.182839393615723
1675156305889371400,11.531371337890626,0.6536170840263367,0.6368576288223267,-10.07509994506836
1675156305909371400,11.551371337890625,0.7230489253997803,0.5841852426528931,-10.070311546325684
1675156305929371400,11.571371337890625,0.9002198576927185,0.5195417404174805,-9.864410400390625
1675156305949371400,11.591371337890624,1.1204863786697388,0.6655880808830261,-9.701604843139648
1675156305969371400,11.611371337890626,1.0079588890075684,0.9911994934082031,-9.840468406677246
1675156305989371100,11.63137109375,0.7876923680305481,1.1300631761550903,-9.972148895263672
1675156306009371100,11.65137109375,0.8667010068893433,1.1061211824417114,-9.957783699035645
1675156306029371100,11.67137109375,0.9696516990661621,0.9409212470054626,-9.593865394592285
1675156306049371100,11.69137109375,1.414973258972168,0.7996633648872375,-9.524434089660645
1675156306069371100,11.71137109375,1.644816517829895,0.7757213711738586,-9.378387451171875
1675156306089371100,11.73137109375,1.4532804489135742,0.8858546018600464,-9.320926666259766
1675156306109371100,11.75137109375,1.2856862545013428,1.039083480834961,-9.672874450683594
1675156306129371100,11.77137109375,1.1779472827911377,1.3048399686813354,-9.672874450683594
1675156306149371100,11.79137109375,1.1755530834197998,1.7477672100067139,-9.146149635314941
1675156306169371100,11.81137109375,1.3120225667953491,1.987187385559082,-8.851662635803223
1675156306189371100,11.83137109375,0.7781155705451965,1.7501614093780518,-8.743924140930176
1675156306209371100,11.85137109375,0.6823474764823914,1.2066776752471924,-9.10066032409668
1675156306229371100,11.87137109375,1.1300631761550903,1.0295066833496094,-10.005668640136719
1675156306249372000,11.891371826171875,1.5442601442337036,1.2090718746185303,-10.90109920501709
1675156306269372400,11.911372314453125,1.414973258972168,1.7405846118927002,-10.872368812561035
1675156306289373400,11.93137353515625,1.37906014919281,2.1954829692840576,-10.575488090515137
1675156306309374000,11.9513740234375,1.0845733880996704,2.2385785579681396,-10.44620132446289
1675156306329374700,11.971374755859374,0.8331822156906128,2.274491548538208,-10.41507625579834
1675156306349375500,11.99137548828125,0.5410895943641663,2.169146776199341,-10.563517570495605
1675156306369375500,12.01137548828125,-0.17238251864910126,2.3104045391082764,-10.75265884399414
1675156306389375500,12.03137548828125,-0.6105214357376099,2.006340980529785,-11.336844444274902
1675156306409375500,12.05137548828125,-0.9911994934082031,1.2114660739898682,-12.2897367477417
1675156306429375500,12.07137548828125,-0.6248866319656372,0.9528923034667969,-13.522750854492188
1675156306449375500,12.09137548828125,0.35673606395721436,1.0606313943862915,-13.570634841918945
1675156306469375500,12.11137548828125,-0.26575639843940735,1.3838485479354858,-12.519579887390137
1675156306489375500,12.13137548828125,-0.3471592366695404,1.699883222579956,-11.684003829956055
1675156306509375500,12.15137548828125,-0.8858546018600464,1.9752163887023926,-10.13974380493164
1675156306529375500,12.17137548828125,-0.8451532125473022,1.8315643072128296,-8.940248489379883
1675156306549375500,12.19137548828125,-1.0055646896362305,1.7310078144073486,-7.767089366912842
1675156306569375500,12.21137548828125,-1.1875240802764893,1.7956513166427612,-6.036081790924072
1675156306589375700,12.231375732421874,5.765536785125732,1.2545616626739502,-5.782296180725098
1675156306609375700,12.251375732421875,8.159738540649414,-0.8690952062606812,-8.629002571105957
1675156306629375700,12.271375732421875,3.1723172664642334,-1.0271124839782715,-5.03291130065918
1675156306649375200,12.291375244140625,3.581725835800171,-0.6200982332229614,-5.418377876281738
1675156306669374500,12.31137451171875,4.055777549743652,-0.6607996821403503,-10.328885078430176
1675156306689373700,12.331373779296875,4.888959884643555,0.790086567401886,-13.36233901977539
1675156306709373200,12.351373291015625,4.168305397033691,1.601720929145813,-12.213122367858887
1675156306729373200,12.371373291015624,3.9001545906066895,1.601720929145813,-13.283329963684082
1675156306749372400,12.391372314453125,3.157952070236206,1.3215993642807007,-15.44798755645752
1675156306769372400,12.411372314453125,2.6671407222747803,2.0398597717285156,-16.130334854125977
1675156306789372400,12.431372314453125,1.7836803197860718,2.209848165512085,-15.756839752197266
1675156306809372400,12.451372314453126,0.9169792532920837,1.9752163887023926,-15.553332328796387
1675156306829372400,12.471372314453125,0.42616790533065796,1.7286136150360107,-15.328277587890625
1675156306849372400,12.491372314453125,1.4939818382263184,0.2322375625371933,-14.104541778564453
1675156306869372400,12.511372314453125,1.6376339197158813,-1.4389152526855469,-11.236288070678711
1675156306889372400,12.531372314453124,1.3072341680526733,-1.9369091987609863,-7.738358974456787
1675156306909372400,12.551372314453126,-0.8451532125473022,-1.824381709098816,-4.137180328369141
1675156306929372400,12.571372314453125,-0.7038952708244324,-1.8124107122421265,-2.011129379272461
1675156306949372400,12.591372314453125,1.0342950820922852,-1.7621324062347412,-1.3479355573654175
1675156306969372400,12.611372314453124,0.17238251864910126,-1.8076223134994507,-0.07422025501728058
1675156306989372400,12.631372314453126,-0.8140285611152649,-2.140416383743286,1.7190368175506592
1675156307009372400,12.651372314453125,3.5649664402008057,-2.229001760482788,0.9864110946655273
1675156307029372400,12.671372314453125,13.539509773254395,4.129997730255127,-6.409577369689941
1675156307049372400,12.691372314453124,-1.2665326595306396,9.148544311523438,-12.66083812713623
1675156307069372400,12.711372314453126,5.257966041564941,4.659116744995117,-16.08484649658203
1675156307089372400,12.731372314453125,5.176563262939453,-1.0797849893569946,-18.16061782836914
1675156307109372400,12.751372314453125,2.7557260990142822,2.0805611610412598,-15.677831649780273
1675156307129372400,12.771372314453124,2.2577321529388428,0.8475474119186401,-13.87230396270752
1675156307149372400,12.791372314453126,0.5650315880775452,0.19153612852096558,-16.2093448638916
1675156307169372400,12.811372314453125,0.009576806798577309,-1.2665326595306396,-17.918804168701172
1675156307189372400,12.831372314453125,-1.2449848651885986,-3.313575267791748,-18.373703002929688
1675156307209372400,12.851372314453124,0.40701428055763245,-3.3255462646484375,-16.45355224609375
1675156307229372400,12.871372314453126,1.8722656965255737,-0.646434485912323,-12.854767799377441
1675156307249373000,12.891373046875,0.20111294090747833,2.2194249629974365,-10.860398292541504
1675156307269373700,12.911373779296875,0.031124621629714966,3.248931646347046,-8.01608657836914
1675156307289374500,12.93137451171875,-0.3926490843296051,4.321534156799316,-3.8977603912353516
1675156307309375000,12.951375,0.22505496442317963,3.1459810733795166,-2.0039467811584473
1675156307329375000,12.971375,1.8962076902389526,0.3926490843296051,-0.5770025849342346
1675156307349375700,12.991375732421876,2.6144683361053467,-0.8834604024887085,1.2976573705673218
1675156307369375700,13.011375732421875,1.5849615335464478,-0.8738836050033569,3.292027235031128
1675156307389376800,13.031376708984375,2.006340980529785,-0.05985504388809204,3.7900211811065674
1675156307409376800,13.051376708984375,8.5811185836792,-0.8954314589500427,0.751779317855835
1675156307429376800,13.071376708984374,14.787188529968262,-4.568136692047119,-8.696040153503418
1675156307449376800,13.091376708984376,0.7086837291717529,-6.6274495124816895,-23.68404197692871
1675156307469376800,13.111376708984375,2.2888567447662354,7.424718856811523,-24.625263214111328
1675156307489376800,13.131376708984375,2.126051187515259,9.833285331726074,-18.864513397216797
1675156307509376800,13.151376708984374,-1.6184803247451782,2.9065608978271484,-16.379331588745117
1675156307529376800,13.171376708984376,-1.4173674583435059,3.184288263320923,-19.963451385498047
1675156307549376800,13.191376708984375,-2.0614075660705566,2.7940332889556885,-20.482994079589844
1675156307569376800,13.211376708984375,-2.0254945755004883,2.2002713680267334,-17.597980499267578
1675156307589376800,13.231376708984374,0.1604115068912506,1.3623007535934448,-14.274529457092285
1675156307609376800,13.251376708984376,-1.072602391242981,-0.5003881454467773,-10.96813678741455
1675156307629376800,13.271376708984375,-0.7445967197418213,-2.851494312286377,-6.280290126800537
1675156307649376000,13.2913759765625,0.05027823522686958,-3.3877954483032227,-3.97916316986084
1675156307669375200,13.311375244140624,1.41257905960083,-2.5905263423919678,-3.045424461364746
1675156307689374500,13.33137451171875,2.607285737991333,-2.2697031497955322,-1.259350061416626
1675156307709374500,13.35137451171875,2.2194249629974365,-2.2888567447662354,1.800439715385437
1675156307729374500,13.37137451171875,1.6089035272598267,-1.137245774269104,3.909731388092041
1675156307749374200,13.391374267578126,-0.9026140570640564,-0.586579442024231,4.462791919708252
1675156307769374200,13.411374267578125,3.5266590118408203,-0.646434485912323,2.2888567447662354
1675156307789374200,13.431374267578125,19.709667205810547,0.727837324142456,-3.4572272300720215
1675156307809374200,13.451374267578124,-5.875670433044434,12.773365020751953,-17.64826011657715
1675156307829374200,13.471374267578126,4.824316501617432,5.286696434020996,-26.10009002685547
1675156307849374200,13.491374267578125,3.0406360626220703,-7.7742719650268555,-24.852710723876953
1675156307869374200,13.511374267578125,-1.3838485479354858,-2.5737667083740234,-19.293075561523438
1675156307889374200,13.531374267578125,0.8930372595787048,-1.0821791887283325,-18.20371437072754
1675156307909374200,13.551374267578124,-1.3646949529647827,-0.993593692779541,-18.732831954956055
1675156307929374200,13.571374267578125,-2.2625205516815186,-1.525106430053711,-17.89725685119629
1675156307949374200,13.591374267578125,-0.608127236366272,-0.6440402865409851,-14.808735847473145
1675156307969374200,13.611374267578125,0.28730419278144836,1.5753847360610962,-12.047922134399414
1675156307989373200,13.631373291015626,-1.3766659498214722,2.5043349266052246,-9.31613826751709
1675156308009373200,13.651373291015625,-2.142810583114624,2.849100112915039,-6.467038154602051
1675156308029373200,13.671373291015625,-1.4389152526855469,2.5785553455352783,-2.7269957065582275
1675156308049373200,13.691373291015625,0.8523358106613159,1.6615760326385498,-0.17956513166427612
1675156308069373200,13.711373291015626,3.0789434909820557,1.1180921792984009,0.6344634294509888
1675156308089373200,13.731373291015625,3.603273630142212,0.0071826050989329815,2.2218191623687744
1675156308109373200,13.751373291015625,2.38462495803833,-0.2537853717803955,4.228160381317139
1675156308129373200,13.771373291015625,8.23156452178955,-0.950498104095459,2.363077163696289
1675156308149373200,13.791373291015624,11.674427032470703,-4.036623954772949,-2.935291290283203
1675156308169373200,13.811373291015625,-1.0223240852355957,-5.660192012786865,-10.3240966796875
1675156308189373200,13.831373291015625,2.3989901542663574,-2.449268341064453,-21.596298217773438
1675156308209373200,13.851373291015625,3.509899616241455,13.393463134765625,-30.359375
1675156308229373200,13.871373291015624,0.790086567401886,7.398382663726807,-22.58989143371582
1675156308249373700,13.891373779296876,-3.114856481552124,3.801992416381836,-18.318635940551758
1675156308269374500,13.91137451171875,-1.2641384601593018,4.572925090789795,-21.62981605529785
1675156308289375200,13.931375244140625,-2.4396915435791016,2.808398485183716,-18.581998825073242
1675156308309375200,13.951375244140625,-1.699883222579956,1.0749965906143188,-14.410999298095703
1675156308329375200,13.971375244140624,-1.0295066833496094,-1.0127472877502441,-14.035109519958496
1675156308349375700,13.991375732421876,-1.7334020137786865,-2.6216509342193604,-10.824484825134277
1675156308369375700,14.011375732421875,-0.028730420395731926,-2.3295583724975586,-4.637568473815918
1675156308389375700,14.031375732421875,-0.45250412821769714,-2.786850690841675,-1.4867992401123047
1675156308409375700,14.051375732421874,3.0597896575927734,-2.2026655673980713,-0.17477671802043915
1675156308429375700,14.071375732421876,3.220201253890991,-2.760514497756958,1.1276689767837524
1675156308449375700,14.091375732421875,2.5306711196899414,-2.518700122833252,3.687070608139038
1675156308469375700,14.111375732421875,0.5003881454467773,-1.98958158493042,5.394435882568359
1675156308489375700,14.131375732421875,-1.3263877630233765,-1.482010841369629,4.8482584953308105
1675156308509375700,14.151375732421876,12.48127269744873,-0.6799532771110535,-0.667982280254364
1675156308529375700,14.171375732421875,6.2946553230285645,5.8565168380737305,-5.576395034790039
1675156308549375700,14.191375732421875,2.434903144836426,15.912463188171387,-24.486099243164062
1675156308569375700,14.211375732421875,7.54203462600708,-2.5929205417633057,-33.32579040527344
1675156308589375700,14.231375732421874,-1.8411411046981812,-8.19804573059082,-23.44940948486328
1675156308609375700,14.251375732421875,-0.8140285611152649,-5.222053050994873,-16.87493133544922
1675156308629375700,14.271375732421875,0,-0.6057330369949341,-19.25237464904785
1675156308649375000,14.291375,-2.7269957065582275,0.3064578175544739,-18.28511619567871
1675156308669374500,14.31137451171875,-1.8579005002975464,0.4596867263317108,-15.285181999206543
1675156308689373400,14.33137353515625,0.4165911078453064,1.1851298809051514,-12.241852760314941
1675156308709373000,14.351373046875,0.20350714027881622,2.8203697204589844,-9.969755172729492
1675156308729373000,14.371373046875,-2.255337953567505,4.086902141571045,-8.46859073638916
1675156308749372200,14.3913720703125,-2.583343744277954,2.920926094055176,-5.171774864196777
1675156308769371600,14.41137158203125,0.5937620401382446,0.9457096457481384,-0.912190854549408
1675156308789371000,14.431370849609374,3.155557870864868,1.4748282432556152,1.158793568611145
1675156308809371000,14.451370849609376,3.162740468978882,1.1899182796478271,3.3901896476745605
1675156308829371000,14.471370849609375,1.702277421951294,0.38307225704193115,5.954679012298584
1675156308849371000,14.491370849609375,1.479616641998291,0.8667010068893433,6.1174845695495605
1675156308869371000,14.511370849609374,9.490914344787598,-0.6105214357376099,2.0231003761291504
1675156308889371000,14.531370849609376,15.347431182861328,-2.9520506858825684,-4.7189717292785645
1675156308909371000,14.551370849609375,1.237802267074585,-8.444648742675781,-16.666637420654297
1675156308929371000,14.571370849609375,-0.6943184733390808,2.765302896499634,-31.247623443603516
1675156308949371000,14.591370849609374,1.4077905416488647,16.970699310302734,-34.74824523925781
1675156308969371000,14.611370849609376,-0.4692635238170624,3.8522706031799316,-16.532560348510742
1675156308989371000,14.631370849609375,-3.2154128551483154,3.268085241317749,-17.66023063659668
1675156309009371000,14.651370849609375,-1.2521674633026123,3.584120035171509,-21.06717872619629
1675156309029371000,14.671370849609374,-2.719813108444214,1.9776105880737305,-16.846200942993164
1675156309049371000,14.691370849609376,-1.4293384552001953,-0.026336219161748886,-13.611335754394531
1675156309069371000,14.711370849609375,-2.056619167327881,-1.6950948238372803,-12.591405868530273
1675156309089371000,14.731370849609375,-1.8938134908676147,0.05506663769483566,-8.822932243347168
1675156309109371000,14.751370849609375,0.12210428714752197,-1.3934253454208374,-3.361459255218506
1675156309129371000,14.771370849609376,1.213860273361206,-2.5282769203186035,-0.9169792532920837
1675156309149371000,14.791370849609375,4.065354347229004,-4.043806552886963,0.6320692300796509
1675156309169371000,14.811370849609375,3.7445313930511475,-3.378218650817871,2.7222073078155518
1675156309189371000,14.831370849609375,2.4612393379211426,-1.8555063009262085,4.73573112487793
1675156309209371000,14.851370849609374,0.6200982332229614,-2.2026655673980713,4.699818134307861
1675156309229371000,14.871370849609375,11.760618209838867,-2.1547815799713135,-0.8523358106613159
1675156309249371600,14.89137158203125,2.1595699787139893,4.697423934936523,-4.252102375030518
1675156309269372200,14.9113720703125,-1.139639973640442,16.14230728149414,-19.628263473510742
1675156309289373200,14.931373291015625,7.999327182769775,1.965639591217041,-35.39946746826172
1675156309309373700,14.951373779296874,-1.7357962131500244,-6.471826553344727,-23.947404861450195
1675156309329373700,14.971373779296876,-1.9632453918457031,-3.114856481552124,-15.198990821838379
1675156309349374500,14.99137451171875,0.40222588181495667,0.22026655077934265,-18.112733840942383
1675156309369375000,15.011375,-1.7525556087493896,-0.043095629662275314,-18.546085357666016
1675156309389375700,15.031375732421875,-2.0446481704711914,-0.8810662031173706,-16.25722885131836
1675156309409375700,15.051375732421874,-0.871489405632019,-0.8619126081466675,-13.63527774810791
1675156309429375700,15.071375732421876,-0.7158663272857666,0.395043283700943,-11.265018463134766
1675156309449375700,15.091375732421875,-1.6615760326385498,2.698265314102173,-8.755894660949707
1675156309469375700,15.111375732421875,-2.427720546722412,3.8786067962646484,-5.660192012786865
1675156309489375700,15.131375732421875,-0.2561795711517334,2.10210919380188,-1.5155296325683594
1675156309509375700,15.151375732421876,2.6408045291900635,1.9632453918457031,0.17956513166427612
1675156309529375700,15.171375732421875,5.406406879425049,0.7661445140838623,1.889025092124939
1675156309549375700,15.191375732421875,3.2609026432037354,-0.26815059781074524,4.14915132522583
1675156309569375700,15.211375732421875,1.900996208190918,-0.090979665517807,5.559635639190674
1675156309589375700,15.231375732421874,8.042423248291016,-1.4413094520568848,2.075772762298584
1675156309609375700,15.251375732421875,13.630489349365234,-5.46147346496582,-5.0161519050598145
1675156309629375700,15.271375732421875,2.827552318572998,-7.972990989685059,-14.059051513671875
1675156309649375000,15.291375,-0.5506663918495178,2.4396915435791016,-28.855815887451172
1675156309669375000,15.311375,1.0055646896362305,19.817405700683594,-36.261383056640625
1675156309689374200,15.331374267578125,-1.4221558570861816,4.771644115447998,-18.921974182128906
1675156309709373400,15.35137353515625,-2.4181437492370605,2.054224967956543,-17.84458351135254
1675156309729373400,15.37137353515625,-1.2090718746185303,3.648763418197632,-19.757551193237305
1675156309749372700,15.39137255859375,-2.0470423698425293,2.4133553504943848,-16.38412094116211
1675156309769372700,15.41137255859375,-1.5682021379470825,0.22505496442317963,-13.616124153137207
1675156309789372700,15.43137255859375,-2.3511061668395996,-1.4053963422775269,-11.715127944946289
1675156309809372700,15.45137255859375,-1.8363527059555054,-0.17238251864910126,-6.337751388549805
1675156309829372700,15.47137255859375,0.16759411990642548,-2.0638017654418945,-1.886630892753601
1675156309849372700,15.49137255859375,1.0271124839782715,-2.4396915435791016,-0.3687070608139038
1675156309869372700,15.51137255859375,4.170699596405029,-4.836287498474121,1.1971008777618408
1675156309889372700,15.53137255859375,3.5697548389434814,-3.294421434402466,2.5689783096313477
1675156309909372700,15.55137255859375,1.3215993642807007,-2.346317768096924,4.747702121734619
1675156309929372700,15.57137255859375,-1.7094600200653076,-2.4684219360351562,4.285621166229248
1675156309949372700,15.59137255859375,6.857293128967285,-2.367865562438965,0.07900865375995636
1675156309969372700,15.61137255859375,16.427215576171875,0.1604115068912506,-4.776432514190674
1675156309989372700,15.63137255859375,-0.5099649429321289,16.6426944732666,-18.665794372558594
1675156310009372700,15.65137255859375,3.5170822143554688,10.582671165466309,-37.539886474609375
1675156310029372700,15.67137255859375,-0.8164227604866028,-9.433453559875488,-25.597309112548828
1675156310049372700,15.69137255859375,-1.6950948238372803,-3.7708675861358643,-16.39130401611328
1675156310069372700,15.71137255859375,1.4221558570861816,-1.7956513166427612,-17.564462661743164
1675156310089372700,15.73137255859375,-2.4205379486083984,0.5195417404174805,-18.957887649536133
1675156310109372700,15.75137255859375,-2.5091233253479004,0.4812345504760742,-15.366584777832031
1675156310129372700,15.77137255859375,-0.47884035110473633,-0.2753331959247589,-11.942577362060547
1675156310149372700,15.79137255859375,-0.49559974670410156,0.6727706789970398,-9.790189743041992
1675156310169372700,15.81137255859375,-2.5737667083740234,2.7437551021575928,-8.169315338134766
1675156310189372700,15.83137255859375,-2.43011474609375,3.600879430770874,-4.0294413566589355
1675156310209372700,15.85137255859375,1.3838485479354858,1.280897855758667,-0.24899697303771973
1675156310229372700,15.87137255859375,4.378994941711426,0.40462008118629456,0.7972691655158997
1675156310249373400,15.89137353515625,5.056853294372559,-0.363918662071228,3.3231520652770996
1675156310269373400,15.91137353515625,2.31758713722229,0.49559974670410156,5.660192012786865
1675156310289374500,15.93137451171875,2.473210334777832,1.4413094520568848,5.411195278167725
1675156310309375000,15.951375,10.762235641479492,-2.1595699787139893,-0.18914192914962769
1675156310329375000,15.971375,7.364863872528076,-5.076006889343262,-12.181997299194336
1675156310349375700,15.991375732421876,3.952826976776123,-9.04559326171875,-19.324199676513672
1675156310369375700,16.011375732421875,1.8171991109848022,16.537349700927734,-36.04351043701172
1675156310389375700,16.031375732421875,1.0438719987869263,12.227487564086914,-27.73772430419922
1675156310409375700,16.051375732421874,-3.732560396194458,1.4437036514282227,-13.659219741821289
1675156310429375700,16.071375732421874,-1.8291701078414917,2.054224967956543,-19.147029876708984
1675156310449375700,16.091375732421874,-1.3407529592514038,3.397372245788574,-19.010560989379883
1675156310469375700,16.111375732421877,-1.482010841369629,2.406172752380371,-14.851831436157227
1675156310489375700,16.131375732421876,-2.7437551021575928,0.667982280254364,-13.14925479888916
1675156310509375700,16.151375732421876,-3.0621838569641113,1.558625340461731,-9.313743591308594
1675156310529375700,16.171375732421875,-1.0989385843276978,-0.667982280254364,-3.627215623855591
1675156310549375700,16.191375732421875,0.1412578970193863,-1.5538369417190552,-1.0295066833496094
1675156310569375700,16.211375732421875,3.4955344200134277,-4.3861775398254395,-0.1388636976480484
1675156310589375700,16.231375732421874,4.7836151123046875,-4.458003520965576,1.5538369417190552
1675156310609375700,16.251375732421874,3.909731388092041,-2.1595699787139893,3.758896589279175
1675156310629375700,16.271375732421873,0.7781155705451965,-1.8770540952682495,5.104737281799316
1675156310649375200,16.291375244140625,8.403946876525879,-2.786850690841675,1.4245500564575195
1675156310669375200,16.311375244140624,9.737517356872559,2.094926595687866,-2.2146365642547607
1675156310689374200,16.331374267578123,-2.276885747909546,11.142913818359375,-7.910741806030273
1675156310709374200,16.351374267578127,9.347262382507324,8.521263122558594,-34.23558807373047
1675156310729374200,16.371374267578126,1.7286136150360107,-10.513238906860352,-33.660980224609375
1675156310749375500,16.39137548828125,-1.9393033981323242,-6.598719120025635,-18.75438117980957
1675156310769375500,16.41137548828125,0.14604631066322327,-2.734178304672241,-15.582063674926758
1675156310789375500,16.43137548828125,-1.2186486721038818,0.05506663769483566,-18.81662940979004
1675156310809375500,16.45137548828125,-2.63362193107605,1.3646949529647827,-16.38412094116211
1675156310829375500,16.47137548828125,-1.4221558570861816,1.9800047874450684,-13.340790748596191
1675156310849375500,16.49137548828125,-0.40940847992897034,2.6001031398773193,-10.295366287231445
1675156310869375500,16.51137548828125,-1.3742717504501343,3.7277719974517822,-8.020874977111816
1675156310889375500,16.53137548828125,-2.940079689025879,3.421314239501953,-5.581183433532715
1675156310909375500,16.55137548828125,-0.9552865028381348,1.455674648284912,-1.434126853942871
1675156310929375500,16.57137548828125,2.5713725090026855,1.6136919260025024,0.8858546018600464
1675156310949375500,16.59137548828125,5.72244119644165,1.5658079385757446,2.6671407222747803
1675156310969375500,16.61137548828125,2.6575639247894287,1.4293384552001953,4.24970817565918
1675156310989375500,16.63137548828125,-0.43335050344467163,2.121262788772583,5.272331237792969
1675156311009375500,16.65137548828125,8.686463356018066,0.8451532125473022,2.1930887699127197
1675156311029375500,16.67137548828125,19.1805477142334,-2.2242133617401123,-6.153397560119629
1675156311049375500,16.69137548828125,1.359906554222107,-9.98412036895752,-19.542072296142578
1675156311069375500,16.71137548828125,-0.8236053586006165,-0.5746083855628967,-29.370569229125977
1675156311089375500,16.73137548828125,2.3319525718688965,22.486940383911133,-38.830360412597656
1675156311109375500,16.75137548828125,-2.2912509441375732,4.28322696685791,-14.566622734069824
1675156311129375500,16.77137548828125,-1.6879122257232666,1.1204863786697388,-14.736909866333008
1675156311149375500,16.79137548828125,-0.24899697303771973,1.4939818382263184,-20.621858596801758
1675156311169375500,16.81137548828125,-1.9560627937316895,1.37906014919281,-17.011402130126953
1675156311189375500,16.83137548828125,-1.0055646896362305,0.07661445438861847,-13.486837387084961
1675156311209375200,16.851375244140623,-3.778050184249878,0.026336219161748886,-11.363180160522461
1675156311229375200,16.871375244140626,-2.1045033931732178,1.015141487121582,-6.048052787780762
1675156311249376000,16.8913759765625,-1.235408067703247,-2.1116859912872314,-1.1276689767837524
1675156311269376000,16.9113759765625,1.6280571222305298,-3.002328872680664,0.07182604819536209
1675156311289376800,16.931376708984374,4.807557106018066,-5.830180644989014,1.0654197931289673
1675156311309377000,16.951376953125,4.951508522033691,-3.220201253890991,1.723825216293335
1675156311329377000,16.971376953125,2.0254945755004883,-1.45806884765625,4.101267337799072
1675156311349375500,16.99137548828125,-0.3256114423274994,-1.824381709098816,3.928884983062744
1675156311369375700,17.011375732421875,12.957718849182129,-3.885789394378662,-1.5442601442337036
1675156311389375700,17.031375732421875,7.443872451782227,4.24970817565918,-3.1723172664642334
1675156311409375700,17.051375732421874,-0.4405331015586853,17.777545928955078,-17.96908187866211
1675156311429375200,17.071375244140626,7.23797082901001,2.049436569213867,-40.13520050048828
1675156311449375200,17.091375244140625,-1.5155296325683594,-12.196362495422363,-27.37859344482422
1675156311469375200,17.111375244140625,-0.23942017555236816,-5.9211602210998535,-14.705785751342773
1675156311489375200,17.131375244140624,-0.23702596127986908,-1.5442601442337036,-16.1901912689209
1675156311509375200,17.151375244140624,-1.656787633895874,1.5298948287963867,-18.76156234741211
1675156311529375200,17.171375244140624,-1.8052281141281128,1.316810965538025,-14.789582252502441
1675156311549375200,17.191375244140627,-0.9409212470054626,2.0183119773864746,-11.025598526000977
1675156311569375200,17.211375244140626,-1.3455413579940796,3.3710360527038574,-9.25867748260498
1675156311589375200,17.231375244140626,-2.9496564865112305,3.754108190536499,-7.970596790313721
1675156311609375200,17.251375244140625,-2.2002713680267334,2.1380221843719482,-4.388571739196777
1675156311629375200,17.271375244140625,0.8331822156906128,1.2401964664459229,-1.1444283723831177
1675156311649374500,17.29137451171875,4.28322696685791,2.3247697353363037,0.4429273009300232
1675156311669374500,17.31137451171875,6.201281547546387,1.6089035272598267,2.782062292098999
1675156311689374000,17.3313740234375,2.4205379486083984,1.623268723487854,4.702212333679199
1675156311709373200,17.351373291015626,0.2059013396501541,1.6615760326385498,5.442319869995117
1675156311729373200,17.371373291015626,7.099107265472412,-0.8020575642585754,1.9057846069335938
1675156311749372700,17.39137255859375,15.072097778320312,-2.7030537128448486,-4.8722004890441895
1675156311769372700,17.41137255859375,1.845929503440857,-7.656956195831299,-17.442358016967773
1675156311789372700,17.43137255859375,-1.8052281141281128,-3.2393548488616943,-29.179033279418945
1675156311809372700,17.45137255859375,-1.8124107122421265,21.61305809020996,-44.44027328491211
1675156311829372700,17.47137255859375,-3.643975019454956,5.0592474937438965,-15.529390335083008
1675156311849372700,17.49137255859375,-1.0893617868423462,2.315192937850952,-16.15667152404785
1675156311869372700,17.51137255859375,-2.4229321479797363,3.026270866394043,-20.480600357055664
1675156311889372700,17.53137255859375,-3.2585084438323975,2.3989901542663574,-16.348207473754883
1675156311909372700,17.55137255859375,-1.8387469053268433,-0.17238251864910126,-12.694356918334961
1675156311929372700,17.57137255859375,-3.4620156288146973,-2.255337953567505,-10.170867919921875
1675156311949372700,17.59137255859375,-2.2840683460235596,-0.7613561153411865,-7.779060363769531
1675156311969372700,17.61137255859375,2.276885747909546,-2.5546131134033203,-2.676717519760132
1675156311989372700,17.63137255859375,3.270479440689087,-3.9863457679748535,-0.8451532125473022
1675156312009372700,17.65137255859375,4.4532151222229,-3.7469255924224854,1.1803414821624756
1675156312029373000,17.671373046875,3.043030261993408,-2.4372973442077637,4.2544965744018555
1675156312049373000,17.691373046875,1.2545616626739502,-2.4205379486083984,6.122272968292236
1675156312069373000,17.711373046875,2.896984100341797,-3.442862033843994,3.8570590019226074
1675156312089373000,17.731373046875,14.954782485961914,-4.101267337799072,-2.231395959854126
1675156312109373200,17.751373291015625,-2.695871114730835,9.172486305236816,-6.613084316253662
1675156312129373000,17.771373046875,5.442319869995117,15.637129783630371,-28.04897117614746
1675156312149373200,17.791373291015624,3.56017804145813,-2.8131868839263916,-38.341941833496094
1675156312169373200,17.811373291015624,-2.2888567447662354,-8.269871711730957,-21.354482650756836
1675156312189373200,17.831373291015623,-1.2114660739898682,-2.233790159225464,-15.433622360229492
1675156312209373200,17.851373291015626,-0.23702596127986908,0.9457096457481384,-17.700931549072266
1675156312229373000,17.871373046875,-1.8339585065841675,0.6703764796257019,-17.145477294921875
1675156312249373700,17.891373779296874,-1.4269442558288574,-0.4908113479614258,-14.2122802734375
1675156312269373700,17.911373779296873,-0.6775590777397156,1.1971008777618408,-10.970531463623047
1675156312289374500,17.93137451171875,-1.3072341680526733,2.9041666984558105,-8.633790969848633
1675156312309375000,17.951375,-2.0638017654418945,3.6583402156829834,-6.749553680419922
1675156312329375000,17.971375,-1.4652514457702637,3.73016619682312,-4.158728122711182
1675156312349375700,17.991375732421876,1.292868971824646,1.1492167711257935,-0.7613561153411865
1675156312369375700,18.011375732421875,4.022258758544922,0.45489832758903503,0.9840168952941895
1675156312389375700,18.031375732421875,5.81342077255249,-1.015141487121582,2.9879636764526367
1675156312409375700,18.051375732421874,3.73016619682312,-1.278503656387329,4.108449935913086
1675156312429375700,18.071375732421874,7.269095420837402,-1.8124107122421265,2.674323320388794
1675156312449375700,18.091375732421874,10.38155746459961,-3.2345664501190186,-2.2170307636260986
1675156312469375700,18.111375732421877,0.17477671802043915,-4.661510944366455,-9.397541046142578
1675156312489375700,18.131375732421876,5.451896667480469,-3.090914487838745,-18.352153778076172
1675156312509375700,18.151375732421876,5.360917091369629,17.459117889404297,-42.61080551147461
1675156312529375700,18.171375732421875,0.5913678407669067,7.582736015319824,-22.144569396972656
1675156312549375700,18.191375732421875,-2.10210919380188,3.6176388263702393,-13.534721374511719
1675156312569375700,18.211375732421875,-0.8188169598579407,4.503493309020996,-20.70565414428711
1675156312589375500,18.23137548828125,-2.5091233253479004,2.9544448852539062,-17.98105239868164
1675156312609375500,18.25137548828125,-1.7166426181793213,1.1444283723831177,-13.891457557678223
1675156312629375500,18.27137548828125,-0.9768342971801758,-1.7693150043487549,-12.122142791748047
1675156312649375500,18.29137548828125,-2.6623523235321045,-1.0558429956436157,-9.493309020996094
1675156312669374700,18.311374755859376,0.6272808313369751,-1.680729627609253,-3.40216064453125
1675156312689374000,18.3313740234375,-0.06464344263076782,-2.2601263523101807,-0.47165772318840027
1675156312709373200,18.351373291015626,3.5027170181274414,-4.000710964202881,2.006340980529785
1675156312729373200,18.371373291015626,3.7277719974517822,-4.20421838760376,2.4803929328918457
1675156312749372400,18.391372314453125,2.557007312774658,-2.5330653190612793,4.086902141571045
1675156312769372400,18.411372314453125,-0.9528923034667969,-2.097320795059204,5.02094030380249
1675156312789372400,18.431372314453125,0.5506663918495178,-2.5115175247192383,2.604891538619995
1675156312809372400,18.451372314453124,20.09273910522461,-4.122815132141113,-3.1004912853240967
1675156312829372400,18.471372314453124,0.9911994934082031,12.284948348999023,-7.834127426147461
1675156312849372400,18.491372314453123,4.833893299102783,21.73037338256836,-34.0129280090332
1675156312869371600,18.51137158203125,6.574777126312256,-6.979397296905518,-31.111154556274414
1675156312889371600,18.53137158203125,-0.8595184087753296,-6.759130477905273,-16.412851333618164
1675156312909371600,18.55137158203125,1.800439715385437,-3.581725835800171,-16.053720474243164
1675156312929371600,18.57137158203125,0.5003881454467773,-1.280897855758667,-20.447080612182617
1675156312949371600,18.59137158203125,-2.1595699787139893,-0.6847416758537292,-17.60276985168457
1675156312969371600,18.61137158203125,-1.3934253454208374,-0.16759411990642548,-14.106935501098633
1675156312989371600,18.63137158203125,-0.6631938815116882,0.16519992053508759,-11.44218921661377
1675156313009371600,18.65137158203125,-0.5315127968788147,1.534683346748352,-9.790189743041992
1675156313029371600,18.67137158203125,-1.946485996246338,2.978386878967285,-7.652167797088623
1675156313049371600,18.69137158203125,-1.4293384552001953,2.094926595687866,-3.8163576126098633
1675156313069371600,18.71137158203125,0.4644751250743866,0.8786720037460327,-0.17238251864910126
1675156313089371600,18.73137158203125,3.093308687210083,1.5873557329177856,1.7118542194366455
1675156313109371600,18.75137158203125,5.648221015930176,1.1827356815338135,3.56017804145813
1675156313129371600,18.77137158203125,2.9161376953125,0.7254431247711182,4.534617900848389
1675156313149371600,18.79137158203125,2.8107926845550537,1.1779472827911377,4.127603530883789
1675156313169371600,18.81137158203125,11.684003829956055,-1.1635819673538208,-0.2849099934101105
1675156313189372000,18.831371826171875,6.646603107452393,-4.211400985717773,-8.688857078552246
1675156313209372000,18.851371826171874,4.908412933349609,-7.85806941986084,-18.57720947265625
1675156313229372000,18.871371826171874,4.520252704620361,14.636054039001465,-40.97556686401367
1675156313249372000,18.891371826171873,-0.4141969084739685,9.914688110351562,-25.819969177246094
1675156313269372700,18.91137255859375,-2.03507137298584,2.27209734916687,-12.32325553894043
1675156313289373400,18.93137353515625,-0.5171475410461426,3.043030261993408,-19.53728485107422
1675156313309374200,18.951374267578124,-1.460463047027588,4.091690540313721,-18.86930274963379
1675156313329374200,18.971374267578124,-1.6136919260025024,2.3367409706115723,-14.564228057861328
1675156313349374700,18.991374755859376,-0.8547300100326538,-0.5674257874488831,-12.869132995605469
1675156313369374700,19.011374755859375,-2.1499931812286377,0.26575639843940735,-9.29458999633789
1675156313389374700,19.031374755859375,0.6536170840263367,-1.6831238269805908,-3.0621838569641113
1675156313409374700,19.051374755859374,0.5482721924781799,-2.1787235736846924,-0.8858546018600464
1675156313429374700,19.071374755859374,3.950432777404785,-3.3518824577331543,0.090979665517807
1675156313449374700,19.091374755859373,3.512293815612793,-3.114856481552124,1.86508309841156
1675156313469375700,19.111375732421877,2.762908697128296,-1.4053963422775269,4.125209331512451
1675156313489375700,19.131375732421876,-1.6639702320098877,-1.2545616626739502,5.73441219329834
1675156313509375700,19.151375732421876,0.49320554733276367,-2.3104045391082764,2.913743495941162
1675156313529375700,19.171375732421875,23.147741317749023,-3.622427225112915,-3.3446998596191406
1675156313549375700,19.191375732421875,1.4676456451416016,11.897087097167969,-9.119813919067383
1675156313569375700,19.211375732421875,4.015076160430908,17.222091674804688,-37.15202331542969
1675156313589375700,19.231375732421874,5.341763496398926,-13.659219741821289,-32.25079345703125
1675156313609375700,19.251375732421874,-1.5682021379470825,-6.644208908081055,-17.28912925720215
1675156313629375700,19.271375732421873,1.2976573705673218,-3.6966474056243896,-14.696208953857422
1675156313649375200,19.291375244140625,1.115697979927063,-1.05105459690094,-18.63227653503418
1675156313669374500,19.31137451171875,-1.4484920501708984,0.6919242739677429,-17.248428344726562
1675156313689373700,19.331373779296875,-1.8267759084701538,1.3263877630233765,-13.242629051208496
1675156313709373700,19.351373779296875,-1.7836803197860718,2.540247917175293,-10.259453773498535
1675156313729373700,19.371373779296874,-2.63362193107605,2.7006595134735107,-8.121431350708008
1675156313749373400,19.39137353515625,-2.612074136734009,2.561795711517334,-5.272331237792969
1675156313769373000,19.411373046875,-0.730231523513794,1.8363527059555054,-2.1715409755706787
1675156313789373000,19.431373046875,1.7118542194366455,2.03507137298584,0.37828385829925537
1675156313809373000,19.451373046875,5.375282287597656,1.1971008777618408,2.322375535964966
1675156313829373000,19.471373046875,4.223371982574463,0.4668693244457245,3.7924153804779053
1675156313849372400,19.491372314453123,0.22505496442317963,0.5674257874488831,4.9922099113464355
1675156313869372400,19.511372314453126,0.8379706144332886,0.2944868206977844,3.866635799407959
1675156313889372400,19.531372314453126,12.974478721618652,-1.5322890281677246,-1.623268723487854
1675156313909372400,19.551372314453126,19.285892486572266,-5.265148639678955,-14.732121467590332
1675156313929372400,19.571372314453125,3.2800562381744385,-12.610559463500977,-21.42391586303711
1675156313949372400,19.591372314453125,-0.8259995579719543,14.30325984954834,-40.33631134033203
1675156313969372400,19.611372314453124,-0.933738648891449,13.685556411743164,-22.822128295898438
1675156313989372400,19.631372314453124,-2.7269957065582275,3.670311212539673,-12.871527671813965
1675156314009372400,19.651372314453123,-0.9768342971801758,3.3207578659057617,-18.08160972595215
1675156314029372400,19.671372314453127,-2.027888774871826,2.9664158821105957,-17.837400436401367
1675156314049372400,19.691372314453126,-2.185906171798706,1.0893617868423462,-14.592958450317383
1675156314069372200,19.7113720703125,-1.4772224426269531,-1.1085153818130493,-11.980884552001953
1675156314089372200,19.7313720703125,-1.7836803197860718,0.586579442024231,-7.573159217834473
1675156314109372200,19.7513720703125,0.5147533416748047,-1.3120225667953491,-2.9281086921691895
1675156314129372200,19.7713720703125,1.6112977266311646,-1.8531121015548706,-0.7230489253997803
1675156314149372200,19.7913720703125,2.030282974243164,-2.999934673309326,0.9481038451194763
1675156314169372200,19.8113720703125,3.0190882682800293,-3.60566782951355,2.8107926845550537
1675156314189372200,19.8313720703125,2.516305923461914,-1.4700398445129395,3.687070608139038
1675156314209372200,19.8513720703125,2.5115175247192383,-1.7190368175506592,3.7636849880218506
1675156314229372200,19.8713720703125,13.276147842407227,-2.1164743900299072,-0.4812345504760742
1675156314249372700,19.89137255859375,-0.5219359993934631,5.250783443450928,-3.531447410583496
1675156314269373400,19.91137353515625,6.318597793579102,11.789348602294922,-20.957046508789062
1675156314289207800,19.931207763671875,4.4532151222229,2.7054479122161865,-41.77283477783203
1675156314309208000,19.9512080078125,-0.33039984107017517,-7.474997043609619,-22.82691764831543
1675156314329208000,19.9712080078125,-0.17956513166427612,-2.7126305103302,-13.845967292785645
1675156314349208000,19.9912080078125,0.6129156351089478,-1.6759412288665771,-16.891691207885742
1675156314369208600,20.01120849609375,-0.608127236366272,-0.17717093229293823,-18.910003662109375
1675156314389208600,20.03120849609375,-1.2737152576446533,-0.4644751250743866,-15.464747428894043
1675156314409208600,20.05120849609375,-1.6615760326385498,-0.19393034279346466,-11.593024253845215
1675156314429208600,20.07120849609375,-1.4221558570861816,1.1468225717544556,-8.760683059692383
1675156314449209300,20.091209228515623,-2.322375535964966,2.851494312286377,-6.787860870361328
1675156314469209300,20.111209228515627,-2.0829553604125977,3.136404275894165,-3.7277719974517822
1675156314489209300,20.131209228515626,0.4357447028160095,1.6424223184585571,-0.6823474764823914
1675156314509209300,20.151209228515626,3.246537446975708,1.4652514457702637,0.8140285611152649
1675156314529209300,20.171209228515625,5.083189487457275,0.17956513166427612,2.7006595134735107
1675156314549209300,20.191209228515625,2.8778305053710938,-0.33997663855552673,3.8953661918640137
1675156314569209300,20.211209228515624,1.5753847360610962,-0.014365210197865963,3.993528366088867
1675156314589209300,20.231209228515624,11.214739799499512,-1.845929503440857,-0.22744916379451752
1675156314609209300,20.251209228515624,15.565303802490234,-5.492598056793213,-9.543587684631348
1675156314629209300,20.271209228515627,3.531447410583496,-8.2219877243042,-16.362573623657227
1675156314649209300,20.291209228515626,1.460463047027588,7.103895664215088,-29.947572708129883
1675156314669208800,20.311208740234374,-1.5131354331970215,19.7383975982666,-36.024356842041016
1675156314689207800,20.331207763671873,-2.9975404739379883,4.742913722991943,-14.470854759216309
1675156314709207800,20.351207763671876,-1.4532804489135742,3.469198226928711,-17.06407356262207
1675156314729207800,20.371207763671876,-1.599326729774475,4.177882194519043,-19.65938949584961
1675156314749207300,20.391207275390624,-2.5306711196899414,2.0183119773864746,-15.079280853271484
1675156314769207300,20.411207275390623,-1.1252747774124146,-1.1444283723831177,-12.742240905761719
1675156314789207300,20.431207275390626,-3.1004912853240967,-1.434126853942871,-10.23072338104248
1675156314809207300,20.451207275390626,-0.8571242094039917,-0.038307227194309235,-6.431125164031982
1675156314829207300,20.471207275390626,0.5027823448181152,-1.824381709098816,-1.922544002532959
1675156314849207300,20.491207275390625,2.5665841102600098,-2.4444799423217773,0.28969839215278625
1675156314869207300,20.511207275390625,3.0382418632507324,-4.015076160430908,2.0231003761291504
1675156314889207300,20.531207275390624,3.399766445159912,-2.52109432220459,3.3279404640197754
1675156314909207300,20.551207275390624,-0.4165911078453064,-1.0606313943862915,4.766855716705322
1675156314929207300,20.571207275390623,1.8411411046981812,-1.5322890281677246,3.2154128551483154
1675156314949207300,20.591207275390627,16.980276107788086,-2.497152328491211,-1.944091796875
1675156314969207300,20.611207275390626,-0.24660277366638184,7.977779388427734,-4.886565685272217
1675156314989207300,20.631207275390626,8.04002857208252,15.062520980834961,-28.64752197265625
1675156315009207300,20.651207275390625,4.441244125366211,-3.512293815612793,-38.06421661376953
1675156315029207300,20.671207275390625,-1.525106430053711,-6.213252544403076,-20.619462966918945
1675156315049207300,20.691207275390624,-0.1149216815829277,-4.264073371887207,-13.965678215026855
1675156315069207300,20.711207275390624,1.0797849893569946,-1.8770540952682495,-17.806276321411133
1675156315089207300,20.731207275390624,-1.0654197931289673,-0.7206547260284424,-18.249204635620117
1675156315109207300,20.751207275390627,-1.6879122257232666,-0.8403648138046265,-14.616900444030762
1675156315129207300,20.771207275390626,-1.1109095811843872,0.36152446269989014,-11.372756958007812
1675156315149207300,20.791207275390626,-1.699883222579956,2.540247917175293,-9.052776336669922
1675156315169207300,20.811207275390625,-2.233790159225464,3.8522706031799316,-6.189310550689697
1675156315189207300,20.831207275390625,-1.0271124839782715,2.0829553604125977,-2.518700122833252
1675156315209207300,20.851207275390625,1.5945383310317993,1.8962076902389526,-0.05027823522686958
1675156315229207300,20.871207275390624,4.888959884643555,1.1061211824417114,2.0039467811584473
1675156315249207300,20.891207275390624,5.73441219329834,-0.10295066982507706,3.869029998779297
1675156315269208000,20.9112080078125,1.3886369466781616,-0.009576806798577309,5.0807952880859375
1675156315289208800,20.931208740234375,7.568370819091797,-0.7254431247711182,3.0166940689086914
1675156315309209000,20.951208984375,13.987225532531738,-1.6903064250946045,-2.9520506858825684
1675156315329209000,20.971208984375,3.8067808151245117,-6.00495719909668,-13.098977088928223
1675156315349209300,20.991209228515626,2.6384103298187256,-3.9025487899780273,-22.70241928100586
1675156315369209300,21.011209228515625,2.0039467811584473,20.41116714477539,-44.816162109375
1675156315389209300,21.031209228515625,-1.9488801956176758,7.2667012214660645,-18.68734359741211
1675156315409209300,21.051209228515624,-2.3918075561523438,3.5386300086975098,-12.830825805664062
1675156315429209300,21.071209228515624,-0.7948749661445618,4.649539470672607,-19.566015243530273
1675156315449209300,21.091209228515623,-2.695871114730835,3.603273630142212,-17.42559814453125
1675156315469209300,21.111209228515627,-1.659181833267212,0.5027823448181152,-14.188338279724121
1675156315489209300,21.131209228515626,-1.2330138683319092,-3.1052796840667725,-11.90427017211914
1675156315509209300,21.151209228515626,-1.8579005002975464,-1.8339585065841675,-7.216423034667969
1675156315529209300,21.171209228515625,2.185906171798706,-1.2330138683319092,-2.499546527862549
1675156315549209300,21.191209228515625,2.142810583114624,-2.2912509441375732,-0.6536170840263367
1675156315569209300,21.211209228515624,3.0837318897247314,-3.045424461364746,2.049436569213867
1675156315589209300,21.231209228515624,3.114856481552124,-3.248931646347046,4.4077253341674805
1675156315609209300,21.251209228515624,1.1851298809051514,-1.86508309841156,5.978621006011963
1675156315629209300,21.271209228515627,-2.212242364883423,-1.3838485479354858,5.06643009185791
1675156315649208600,21.29120849609375,14.068628311157227,-2.964021682739258,-1.5275006294250488
1675156315669208600,21.31120849609375,8.760683059692383,0.5410895943641663,-3.6296098232269287
1675156315689207800,21.331207763671873,4.264073371887207,14.945205688476562,-19.388843536376953
1675156315709207000,21.35120703125,5.090372085571289,7.984961986541748,-42.718544006347656
1675156315729207000,21.37120703125,-1.015141487121582,-10.192416191101074,-23.49729347229004
1675156315749206800,21.391206787109375,-0.8236053586006165,-4.908412933349609,-15.80711841583252
1675156315769206800,21.411206787109375,1.9321208000183105,-3.3662476539611816,-17.250822067260742
1675156315789206800,21.431206787109375,-0.10055647045373917,-0.8571242094039917,-18.294692993164062
1675156315809206800,21.451206787109374,-1.8291701078414917,0.06703764945268631,-15.151106834411621
1675156315829206800,21.471206787109374,-1.3096283674240112,1.1444283723831177,-11.212346076965332
1675156315849206000,21.4912060546875,-1.2425906658172607,1.9847931861877441,-8.791808128356934
1675156315869206300,21.511206298828125,-1.4700398445129395,2.5785553455352783,-6.464643955230713
1675156315889206300,21.531206298828124,-1.094150185585022,3.0573954582214355,-3.7469255924224854
1675156315909206000,21.5512060546875,1.4269442558288574,1.501164436340332,-0.47165772318840027
1675156315929206000,21.5712060546875,4.730942726135254,1.4987702369689941,0.7206547260284424
1675156315949206000,21.5912060546875,5.612308025360107,0.047884032130241394,2.2649147510528564
1675156315969206000,21.6112060546875,1.7046716213226318,-0.33279404044151306,3.84269380569458
1675156315989206000,21.6312060546875,3.2968156337738037,0.3256114423274994,3.6296098232269287
1675156316009206000,21.6512060546875,12.608165740966797,-1.0055646896362305,-0.6368576288223267
1675156316029206000,21.6712060546875,5.624279022216797,-4.606443881988525,-10.970531463623047
1675156316049206000,21.6912060546875,3.5697548389434814,-7.654561996459961,-17.84697723388672
1675156316069206300,21.711206298828124,4.240131378173828,16.657060623168945,-39.52707290649414
1675156316089206300,21.731206298828123,-0.8619126081466675,10.920252799987793,-26.519075393676758
1675156316109206000,21.7512060546875,-2.0829553604125977,3.3686418533325195,-13.089400291442871
1675156316129206000,21.7712060546875,-0.4596867263317108,4.106055736541748,-19.585168838500977
1675156316149206000,21.7912060546875,-2.360682964324951,4.120420932769775,-18.51256561279297
1675156316169206300,21.811206298828125,-1.845929503440857,2.032677173614502,-14.621688842773438
1675156316189206000,21.8312060546875,-1.4963760375976562,-1.7860745191574097,-12.7853364944458
1675156316209206000,21.8512060546875,-2.322375535964966,-0.8068459630012512,-9.404723167419434
1675156316229206000,21.8712060546875,0.1412578970193863,-2.7006595134735107,-3.1723172664642334
1675156316249206800,21.891206787109375,1.039083480834961,-2.715024709701538,-0.9600749015808105
1675156316269206800,21.911206787109375,3.5218706130981445,-4.4939165115356445,0.993593692779541
1675156316289207600,21.93120751953125,3.8355112075805664,-4.036623954772949,2.38462495803833
1675156316309208300,21.951208251953126,3.023876667022705,-1.7501614093780518,4.4508209228515625
1675156316329208300,21.971208251953126,-1.259350061416626,-1.0534487962722778,5.736806392669678
1675156316349208800,21.991208740234374,-1.659181833267212,-1.1540051698684692,3.0550012588500977
1675156316369208600,22.01120849609375,19.407997131347656,-5.0592474937438965,-3.531447410583496
1675156316389208600,22.03120849609375,6.519710540771484,6.876446723937988,-4.9922099113464355
1675156316409208600,22.05120849609375,2.96162748336792,22.745513916015625,-33.6537971496582
1675156316429208600,22.07120849609375,5.166986465454102,-5.557241439819336,-32.574012756347656
1675156316449209300,22.091209228515623,-1.7405846118927002,-8.55717658996582,-19.580379486083984
1675156316469209300,22.111209228515627,1.0630255937576294,-3.845088005065918,-17.473482131958008
1675156316489209300,22.131209228515626,1.7908629179000854,-1.889025092124939,-19.767127990722656
1675156316509209300,22.151209228515626,-0.9026140570640564,-0.8810662031173706,-17.91162109375
1675156316529209300,22.171209228515625,-1.7070658206939697,-0.395043283700943,-14.293683052062988
1675156316549209300,22.191209228515625,-0.7661445140838623,0.9433154463768005,-11.581052780151367
1675156316569209300,22.211209228515624,-1.0103530883789062,2.22660756111145,-8.976161003112793
1675156316589209300,22.231209228515624,-2.1332337856292725,3.1435868740081787,-5.542876243591309
1675156316609209300,22.251209228515624,-0.6703764796257019,2.7078421115875244,-2.2026655673980713
1675156316629209300,22.271209228515627,1.4987702369689941,1.338358759880066,0.6607996821403503
1675156316649208600,22.29120849609375,3.8355112075805664,0.4118026793003082,2.0470423698425293
1675156316669207800,22.311207763671874,4.019864559173584,-0.5674257874488831,3.8522706031799316
1675156316689207000,22.33120703125,0.6392518281936646,-0.28969839215278625,5.040093898773193
1675156316709206500,22.35120654296875,2.1547815799713135,0.4405331015586853,4.242525577545166
1675156316729206500,22.37120654296875,12.838008880615234,-1.3239935636520386,-1.0462661981582642
1675156316749205800,22.391205810546875,14.427759170532227,-4.015076160430908,-11.341632843017578
1675156316769205800,22.411205810546875,1.7310078144073486,-8.858845710754395,-20.40637969970703
1675156316789205800,22.431205810546874,1.9488801956176758,14.363115310668945,-39.39539337158203
1675156316809205800,22.451205810546874,-0.8930372595787048,10.721534729003906,-25.757719039916992
1675156316829205800,22.471205810546873,-1.3263877630233765,2.9975404739379883,-13.316848754882812
1675156316849205000,22.491205078125,0.3519476354122162,2.7030537128448486,-19.017742156982422
1675156316869205000,22.511205078125,-1.9632453918457031,4.125209331512451,-18.773534774780273
1675156316889205000,22.531205078125,-1.0989385843276978,2.1068975925445557,-15.0170316696167
1675156316909205000,22.551205078125,-1.4413094520568848,-0.7972691655158997,-12.84279727935791
1675156316929205000,22.571205078125,-1.5873557329177856,-0.4189853072166443,-9.050381660461426
1675156316949205000,22.591205078125,0.17717093229293823,-0.7158663272857666,-3.3925838470458984
1675156316969205000,22.611205078125,0.7924807667732239,-0.8978256583213806,-0.9433154463768005
1675156316989205000,22.631205078125,3.1938650608062744,-2.63362193107605,0.9528923034667969
1675156317009205000,22.651205078125,3.2992098331451416,-3.4572272300720215,2.4468741416931152
1675156317029205000,22.671205078125,2.6024973392486572,-2.3582887649536133,4.390965938568115
1675156317049205000,22.691205078125,-1.7405846118927002,-1.8267759084701538,5.559635639190674
1675156317069205000,22.711205078125,-1.6759412288665771,-1.7357962131500244,3.0837318897247314
1675156317089205000,22.731205078125,18.570026397705078,-4.853046894073486,-3.622427225112915
1675156317109205000,22.751205078125,5.018546104431152,5.332186222076416,-5.291484832763672
1675156317129205000,22.771205078125,6.512527942657471,19.417573928833008,-30.950742721557617
1675156317149205000,22.791205078125,4.228160381317139,-1.4867992401123047,-36.2015266418457
1675156317169205000,22.811205078125,-1.434126853942871,-4.76924991607666,-20.040067672729492
1675156317189205000,22.831205078125,-0.004788403399288654,-3.184288263320923,-14.648025512695312
1675156317209205000,22.851205078125,2.1140801906585693,-2.0398597717285156,-19.30025863647461
1675156317229205000,22.871205078125,-1.2210428714752197,-1.9488801956176758,-17.85416030883789
1675156317249205800,22.891205810546875,-1.2186486721038818,0.3711012601852417,-14.418182373046875
1675156317269206300,22.911206298828127,-1.1252747774124146,1.5825673341751099,-11.07827091217041
1675156317289207300,22.931207275390626,-1.7262194156646729,3.1747114658355713,-8.41352367401123
1675156317309207800,22.951207763671874,-2.140416383743286,2.9903578758239746,-5.162198066711426
1675156317329208000,22.9712080078125,-0.5578489899635315,2.0638017654418945,-2.492363929748535
1675156317349208600,22.99120849609375,1.778891921043396,1.0007762908935547,-0.5171475410461426
1675156317369208600,23.01120849609375,4.335899353027344,0.19632454216480255,1.1348515748977661
1675156317389208600,23.03120849609375,3.892971992492676,-0.44771572947502136,2.96162748336792
1675156317409208600,23.05120849609375,0.11971008777618408,-0.12689268589019775,4.481945514678955
1675156317429208600,23.07120849609375,5.866093635559082,0.17238251864910126,3.5194764137268066
1675156317449209300,23.091209228515623,16.166248321533203,-0.3280056416988373,-1.764526605606079
1675156317469209300,23.111209228515627,4.089296340942383,-5.224447250366211,-12.648866653442383
1675156317489209300,23.131209228515626,2.52109432220459,-6.663362503051758,-19.041685104370117
1675156317509209300,23.151209228515626,2.410961151123047,17.569250106811523,-41.2030143737793
1675156317529209300,23.171209228515625,-1.1300631761550903,6.991368293762207,-22.93705177307129
1675156317549209300,23.191209228515625,-1.1109095811843872,1.889025092124939,-14.035109519958496
1675156317569209300,23.211209228515624,-0.090979665517807,3.7612907886505127,-19.35532569885254
1675156317589209300,23.231209228515624,-2.0207061767578125,4.079719543457031,-17.84937286376953
1675156317609209300,23.251209228515624,-1.5466543436050415,1.5658079385757446,-14.4133939743042
1675156317629209300,23.271209228515627,-0.8212111592292786,-1.3694833517074585,-12.217910766601562
1675156317649209300,23.291209228515626,-3.421314239501953,-0.5291185975074768,-9.047987937927246
1675156317669208600,23.31120849609375,0.21787235140800476,-0.09576806426048279,-3.205836057662964
1675156317689208000,23.3312080078125,1.0055646896362305,-1.2473790645599365,-0.3974374830722809
1675156317709207300,23.351207275390625,2.4013843536376953,-2.319981336593628,1.194706678390503
1675156317729207300,23.371207275390624,3.004723072052002,-3.603273630142212,2.360682964324951
1675156317749206800,23.391206787109375,1.599326729774475,-1.7741034030914307,3.6367924213409424
1675156317769206800,23.411206787109375,0.12210428714752197,-1.7334020137786865,4.2951979637146
1675156317789206800,23.431206787109375,14.736909866333008,-4.010287761688232,-0.38307225704193115
1675156317809206800,23.451206787109374,2.078166961669922,2.2816741466522217,-2.4636335372924805
1675156317829206800,23.471206787109374,5.377676486968994,11.097424507141113,-16.527772903442383
1675156317849206800,23.491206787109373,7.3145856857299805,4.261679172515869,-41.01866149902344
1675156317869206800,23.511206787109376,0.05267243832349777,-7.005733489990234,-24.29695701599121
1675156317889206800,23.531206787109376,0.5051765441894531,-2.6839001178741455,-12.378321647644043
1675156317909206800,23.551206787109376,1.7334020137786865,-1.6687586307525635,-15.902886390686035
1675156317929206800,23.571206787109375,-0.047884032130241394,-0.9864110946655273,-19.29786491394043
1675156317949206800,23.591206787109375,-0.8212111592292786,-0.5722141861915588,-16.08245086669922
1675156317969206800,23.611206787109374,-0.9433154463768005,0.3016694188117981,-12.48127269744873
1675156317989206800,23.631206787109374,-0.545877993106842,1.6041151285171509,-9.392752647399902
1675156318009206800,23.651206787109373,-0.7733271718025208,2.494758129119873,-7.206846237182617
1675156318029206800,23.671206787109377,-1.2401964664459229,2.52109432220459,-4.4508209228515625
1675156318049206800,23.691206787109376,-0.11252748221158981,1.094150185585022,-1.4221558570861816
1675156318069206800,23.711206787109376,2.1954829692840576,1.161187767982483,0.4429273009300232
1675156318089206800,23.731206787109375,4.6040496826171875,-0.033518824726343155,2.319981336593628
1675156318109206800,23.751206787109375,2.3319525718688965,-0.8571242094039917,3.7181951999664307
1675156318129206800,23.771206787109374,-0.24420857429504395,0.0933738648891449,4.120420932769775
1675156318149206800,23.791206787109374,10.587459564208984,0.47884035110473633,0.8068459630012512
1675156318169206800,23.811206787109374,19.082386016845703,-1.4724340438842773,-6.91954231262207
1675156318189206800,23.831206787109377,2.6192567348480225,-7.917924404144287,-17.315465927124023
1675156318209206800,23.851206787109376,4.522646903991699,7.9945387840271,-34.46333694458008
1675156318229206800,23.871206787109376,-1.9584569931030273,17.202938079833984,-33.93152618408203
1675156318249206800,23.891206787109375,-3.1004912853240967,4.505887508392334,-13.623307228088379
1675156318269207300,23.911207275390623,0.44532153010368347,2.537853717803955,-17.28673553466797
1675156318289208000,23.9312080078125,-1.4963760375976562,3.77565598487854,-19.80064582824707
1675156318309208800,23.951208740234375,-1.987187385559082,2.185906171798706,-15.543755531311035
1675156318329208800,23.971208740234374,-1.5059528350830078,-0.8762778043746948,-13.434165000915527
1675156318349209300,23.991209228515626,-3.3518824577331543,-0.23702596127986908,-10.424653053283691
1675156318369209300,24.011209228515625,-0.7709329724311829,-0.646434485912323,-5.614702224731445
1675156318389209300,24.031209228515625,-0.3902548849582672,-1.0989385843276978,-2.229001760482788
1675156318409209300,24.051209228515624,2.5785553455352783,-2.7676970958709717,-0.3687070608139038
1675156318429209300,24.071209228515624,3.7014358043670654,-4.1611223220825195,1.2976573705673218
1675156318449209300,24.091209228515623,3.7924153804779053,-2.6168625354766846,2.7988216876983643
1675156318469209300,24.111209228515627,1.6711528301239014,-1.7956513166427612,4.9275665283203125
1675156318489209300,24.131209228515626,8.976161003112793,-3.24414324760437,1.9273324012756348
1675156318509209300,24.151209228515626,6.598719120025635,0.47165772318840027,-0.6248866319656372
1675156318529209300,24.171209228515625,-0.5746083855628967,8.631396293640137,-5.4135894775390625
1675156318549209300,24.191209228515625,10.410287857055664,10.10622501373291,-24.69230079650879
1675156318569209300,24.211209228515624,3.2824504375457764,0.6272808313369751,-38.385040283203125
1675156318589209300,24.231209228515624,-0.7326257228851318,-5.454290866851807,-20.21245002746582
1675156318609209300,24.251209228515624,1.5155296325683594,-2.3965959548950195,-12.715904235839844
1675156318629209300,24.271209228515627,1.0606313943862915,0.36152446269989014,-18.124706268310547
1675156318649208600,24.29120849609375,-0.4668693244457245,-0.6607996821403503,-17.916410446166992
1675156318669208000,24.3112080078125,-0.9552865028381348,-0.586579442024231,-15.218144416809082
1675156318689207000,24.33120703125,-0.8619126081466675,0.2106897532939911,-11.9928560256958
1675156318709206500,24.35120654296875,-0.21787235140800476,1.6041151285171509,-8.521263122558594
1675156318729206500,24.37120654296875,-1.048660397529602,2.875436305999756,-6.230011940002441
1675156318749205800,24.391205810546875,-1.2066776752471924,3.160346269607544,-3.711012601852417
1675156318769205800,24.411205810546875,-0.31364041566848755,1.1635819673538208,-1.039083480834961
1675156318789205800,24.431205810546874,1.3503297567367554,0.4908113479614258,0.8595184087753296
1675156318809205800,24.451205810546874,3.00711727142334,-0.22744916379451752,2.801215887069702
1675156318829205800,24.471205810546873,0.9959878921508789,-0.950498104095459,4.084507942199707
1675156318849205800,24.491205810546877,1.113303780555725,-0.0071826050989329815,4.141968727111816
1675156318869205800,24.511205810546876,15.670648574829102,1.0223240852355957,-0.912190854549408
1675156318889205800,24.531205810546876,6.988974094390869,-4.663905143737793,-10.960954666137695
1675156318909205800,24.551205810546875,2.274491548538208,-7.6641387939453125,-17.813459396362305
1675156318929205800,24.571205810546875,6.857293128967285,14.768034934997559,-39.59171676635742
1675156318949205800,24.591205810546874,-0.21547815203666687,11.619359970092773,-25.470415115356445
1675156318969205800,24.611205810546874,-1.6687586307525635,2.8874073028564453,-12.088624000549316
1675156318989205800,24.631205810546874,0.7757213711738586,3.5889084339141846,-18.601152420043945
1675156319009205800,24.651205810546877,-1.3551181554794312,4.1180267333984375,-18.02893829345703
1675156319029205800,24.671205810546876,-1.400607943534851,1.680729627609253,-14.7201509475708
1675156319049205800,24.691205810546876,-0.8810662031173706,-0.5650315880775452,-12.940959930419922
1675156319069205800,24.711205810546875,-3.2776620388031006,-1.1348515748977661,-10.154109001159668
1675156319089205800,24.731205810546875,-0.7924807667732239,0.20111294090747833,-4.733336925506592
1675156319109205800,24.751205810546875,-0.35434186458587646,-1.702277421951294,-0.7469909191131592
1675156319129205800,24.771205810546874,1.9129672050476074,-2.959233283996582,0.7158663272857666
1675156319149205800,24.791205810546874,3.7253777980804443,-5.15740966796875,2.22660756111145
1675156319169205800,24.811205810546873,3.3901896476745605,-2.3367409706115723,3.1507694721221924
1675156319189205800,24.831205810546876,-0.44771572947502136,-0.912190854549408,4.857835292816162
1675156319209205800,24.851205810546876,2.9520506858825684,-2.10210919380188,2.497152328491211
1675156319229205800,24.871205810546876,19.039291381835938,-3.471592426300049,-1.6496049165725708
1675156319249206500,24.89120654296875,-1.039083480834961,11.760618209838867,-6.352116584777832
1675156319269207300,24.911207275390623,9.943418502807617,16.891691207885742,-33.739986419677734
1675156319289208000,24.9312080078125,5.538087844848633,-10.055946350097656,-36.19434356689453
1675156319309208800,24.951208740234375,-0.05267243832349777,-6.969820499420166,-18.888456344604492
1675156319329208800,24.971208740234374,2.63362193107605,-3.952826976776123,-12.490849494934082
1675156319349209600,24.991209716796874,0.6536170840263367,-1.1013327836990356,-18.378490447998047
1675156319369209600,25.011209716796873,-1.0630255937576294,0.2801215946674347,-17.96908187866211
1675156319389209600,25.031209716796877,-0.8858546018600464,0.7924807667732239,-13.920187950134277
1675156319409209600,25.051209716796876,-0.16998831927776337,1.766920804977417,-10.992079734802246
1675156319429209600,25.071209716796876,-1.290474772453308,2.75812029838562,-8.734347343444824
1675156319449209600,25.091209716796875,-1.9800047874450684,2.5450363159179688,-5.526116847991943
1675156319469209600,25.111209716796875,-0.8331822156906128,2.387019157409668,-2.164358377456665
1675156319489209600,25.131209716796874,0.5889736413955688,1.2665326595306396,0.3878606855869293
1675156319509209600,25.151209716796874,3.294421434402466,0.3423708379268646,2.2242133617401123
1675156319529209600,25.171209716796874,4.268861770629883,0.014365210197865963,3.670311212539673
1675156319549209600,25.191209716796877,0.9672574996948242,-0.181959331035614,4.649539470672607
1675156319569209600,25.211209716796876,3.581725835800171,0.40462008118629456,3.5003228187561035
1675156319589209600,25.231209716796876,15.237298011779785,-0.586579442024231,-1.659181833267212
1675156319609209600,25.251209716796875,5.51893424987793,-7.111078262329102,-15.950770378112793
