time,seconds_elapsed,z,y,x
1675156294407682600,0.0496826171875,0.15006732940673828,0.17772960662841797,0.04258781671524048
1675156294427681500,0.069681640625,0.1502361297607422,0.17621731758117676,0.039827704429626465
1675156294447682600,0.0896826171875,0.1497631072998047,0.17685604095458984,0.0349239706993103
1675156294467682600,0.1096826171875,0.14947032928466797,0.1768050193786621,0.030255258083343506
1675156294487682600,0.1296826171875,0.1489858627319336,0.17738795280456543,0.024879038333892822
1675156294507682600,0.1496826171875,0.14650344848632812,0.1829845905303955,0.006272614002227783
1675156294527682800,0.169682861328125,0.14300155639648438,0.19271254539489746,-0.014082789421081543
1675156294547682800,0.189682861328125,0.2356586456298828,0.08077788352966309,0.052882373332977295
1675156294567682800,0.209682861328125,0.22168254852294922,0.0647127628326416,-0.01119452714920044
1675156294587682800,0.229682861328125,0.013250350952148438,0.020534276962280273,0.10245171189308167
1675156294607682800,0.249682861328125,0.05141639709472656,0.05912375450134277,0.11996865272521973
1675156294627683000,0.26968310546875,0.08855056762695312,-0.07235121726989746,0.09010717272758484
1675156294647681000,0.289680908203125,0.022592544555664062,-0.04019927978515625,0.16694015264511108
1675156294667679500,0.309679443359375,0.1259326934814453,-0.1010744571685791,0.17649486660957336
1675156294687677400,0.329677490234375,0.32112598419189453,-0.25328636169433594,0.05524763464927673
1675156294707676200,0.34967626953125,0.36569786071777344,-0.2074601650238037,0.031829118728637695
1675156294727676200,0.36967626953125,0.25335216522216797,-0.07407498359680176,0.07780313491821289
1675156294747675000,0.3896748046875,0.06163978576660156,-0.05936384201049805,0.1346338987350464
1675156294767675000,0.4096748046875,0.049747467041015625,0.00021076202392578125,0.09523120522499084
1675156294787675000,0.4296748046875,0.27149391174316406,0.2880399227142334,-0.07979485392570496
1675156294807675000,0.4496748046875,0.34708309173583984,0.24554014205932617,-0.0725104808807373
1675156294827675000,0.4696748046875,0.1997385025024414,-0.15453624725341797,0.22640937566757202
1675156294847675000,0.4896748046875,-0.08062934875488281,-0.130934476852417,0.37352675199508667
1675156294867675000,0.5096748046875,0.004420280456542969,0.21607065200805664,0.09353795647621155
1675156294887675000,0.5296748046875,0.079010009765625,0.3129451274871826,0.1587141454219818
1675156294907675000,0.5496748046875,0.13193321228027344,0.08133935928344727,0.12336692214012146
1675156294927675000,0.5696748046875,-0.2007598876953125,-0.18206286430358887,0.3062126040458679
1675156294947675000,0.5896748046875,-0.3048124313354492,-0.17667031288146973,0.3540497422218323
1675156294967675000,0.6096748046875,-0.14200115203857422,0.05103492736816406,0.00802949070930481
1675156294987675100,0.629675048828125,-0.1636505126953125,0.00020599365234375,-0.004176974296569824
1675156295007675100,0.649675048828125,-0.2821321487426758,0.037026405334472656,-0.21914568543434143
1675156295027675100,0.669675048828125,-0.3285484313964844,0.16885781288146973,-0.03944757580757141
1675156295047675100,0.689675048828125,-0.09755706787109375,0.05809640884399414,-0.018667280673980713
1675156295067675100,0.709675048828125,0.07950878143310547,-0.07313966751098633,0.01728394627571106
1675156295087675100,0.729675048828125,-0.0754842758178711,-0.1710677146911621,0.10118052363395691
1675156295107675100,0.749675048828125,-0.13345050811767578,0.025551319122314453,0.1805138736963272
1675156295127675100,0.769675048828125,-0.08301448822021484,0.05699872970581055,0.1666995882987976
1675156295147675100,0.789675048828125,0.035686492919921875,-0.0619964599609375,0.25395965576171875
1675156295167675100,0.809675048828125,-0.03609275817871094,-0.020670413970947266,0.2259286642074585
1675156295187675100,0.829675048828125,0.03371620178222656,0.19157648086547852,0.013136029243469238
1675156295207675100,0.849675048828125,0.1161031723022461,0.17606735229492188,-0.044935137033462524
1675156295227675100,0.869675048828125,-0.011287689208984375,0.3117384910583496,0.11688356101512909
1675156295247675600,0.889675537109375,0.09432411193847656,0.028063535690307617,0.13897578418254852
1675156295267676400,0.909676513671875,0.46480274200439453,0.22118592262268066,-0.2854830324649811
1675156295287677200,0.92967724609375,0.2783851623535156,0.22359776496887207,-0.19479259848594666
1675156295307678000,0.949677978515625,-0.045917510986328125,0.1170504093170166,0.07826748490333557
1675156295327678000,0.969677978515625,-0.015391349792480469,0.09491944313049316,0.07317987084388733
1675156295347678500,0.989678466796875,0.04715442657470703,0.0846107006072998,0.021697551012039185
1675156295367678500,1.009678466796875,0.04197978973388672,-0.011326313018798828,-0.0010440945625305176
1675156295387678700,1.0296787109375,0.078277587890625,-0.019276142120361328,-0.0340249240398407
1675156295407678500,1.049678466796875,0.19179248809814453,-0.06290912628173828,-0.010079920291900635
1675156295427678700,1.0696787109375,0.09560489654541016,-0.10893416404724121,0.06292486190795898
1675156295447678700,1.0896787109375,-0.06223297119140625,-0.036097049713134766,0.2027507722377777
1675156295467678700,1.1096787109375,-0.05119609832763672,0.08920884132385254,0.1288115233182907
1675156295487678700,1.1296787109375,0.022380828857421875,0.024982213973999023,0.11559240520000458
1675156295507678700,1.1496787109375,0.11469650268554688,-0.06123995780944824,0.09339812397956848
1675156295527678700,1.1696787109375,0.08888721466064453,0.023645877838134766,0.03742176294326782
1675156295547678700,1.1896787109375,0.12526512145996094,0.008249282836914062,-0.03302299976348877
1675156295567678700,1.2096787109375,0.14787769317626953,0.009512901306152344,0.012073010206222534
1675156295587678700,1.2296787109375,0.23955917358398438,0.007372856140136719,-0.003991186618804932
1675156295607678700,1.2496787109375,0.20860671997070312,0.08402371406555176,0.007809877395629883
1675156295627678700,1.2696787109375,0.09102630615234375,0.09253072738647461,0.00643002986907959
1675156295647678000,1.289677978515625,-0.060123443603515625,0.09846210479736328,0.07453572750091553
1675156295667677200,1.30967724609375,-0.05122089385986328,0.07930350303649902,0.07366326451301575
1675156295687676400,1.329676513671875,-0.051662445068359375,0.007040262222290039,0.057089030742645264
1675156295707675600,1.349675537109375,-0.07765483856201172,0.10630536079406738,0.04637026786804199
1675156295727675600,1.369675537109375,0.028581619262695312,0.19412660598754883,-0.025993913412094116
1675156295747675600,1.389675537109375,0.07541465759277344,0.09807038307189941,0.05267396569252014
1675156295767675600,1.409675537109375,0.04899883270263672,0.032002925872802734,0.04190641641616821
1675156295787676000,1.429676025390625,-0.06485843658447266,0.07155799865722656,0.07444033026695251
1675156295807676000,1.449676025390625,-0.23000812530517578,0.0335545539855957,0.1492222249507904
1675156295827676000,1.469676025390625,-0.23603534698486328,0.08438563346862793,0.14412784576416016
1675156295850510800,1.4925107421875,-0.19951534271240234,0.12000465393066406,0.12587159872055054
1675156295870510800,1.5125107421875,-0.2949504852294922,-0.03424692153930664,0.23899981379508972
1675156295890510800,1.5325107421875,-0.5366125106811523,0.042452096939086914,0.5998222827911377
1675156295910510800,1.5525107421875,-0.45146846771240234,0.005388021469116211,0.4049891233444214
1675156295930510800,1.5725107421875,0.08421707153320312,0.33829498291015625,-0.16674524545669556
1675156295950510800,1.5925107421875,0.32469940185546875,0.8638980388641357,-0.655085563659668
1675156295970510800,1.6125107421875,0.14577293395996094,0.626457691192627,-0.3021896481513977
1675156295990510800,1.6325107421875,-0.03235054016113281,0.14163708686828613,-0.08889514207839966
1675156296010510800,1.6525107421875,0.21999073028564453,-0.18965554237365723,-0.08990716934204102
1675156296030510800,1.6725107421875,0.2871112823486328,-0.33327627182006836,-0.09631115198135376
1675156296050510800,1.6925107421875,0.025203704833984375,-0.06548285484313965,-0.05212324857711792
1675156296070510800,1.7125107421875,-0.034534454345703125,0.07533204555511475,-0.0740399956703186
1675156296090510800,1.7325107421875,0.1446075439453125,-0.28940093517303467,-0.16300809383392334
1675156296110510800,1.7525107421875,0.07955741882324219,-0.2836325168609619,-0.03140461444854736
1675156296130510800,1.7725107421875,-0.32288646697998047,-0.3426227569580078,0.22064051032066345
1675156296150510800,1.7925107421875,-0.5714054107666016,-0.017359614372253418,0.07815045118331909
1675156296170510800,1.8125107421875,-0.055701255798339844,0.10298621654510498,-0.207797110080719
1675156296190510800,1.8325107421875,0.0014181137084960938,-0.24937653541564941,0.13544148206710815
1675156296210510800,1.8525107421875,-0.29277992248535156,-0.3654745817184448,0.26613467931747437
1675156296230510800,1.8725107421875,-0.12055587768554688,-0.11094486713409424,-0.08867168426513672
1675156296250511600,1.89251171875,0.3107337951660156,-0.288246750831604,-0.5694854855537415
1675156296270512000,1.91251220703125,0.36160755157470703,-0.1241147518157959,-0.5878972411155701
1675156296290513200,1.93251318359375,0.20406436920166016,-0.2517886757850647,-0.04231208562850952
1675156296310513700,1.952513671875,0.15286731719970703,-1.0277295112609863,-0.05014443397521973
1675156296330513700,1.972513671875,0.695216178894043,-0.7308217287063599,0.24230098724365234
1675156296350513700,1.992513671875,0.6591272354125977,-0.2054598331451416,0.008971750736236572
1675156296370513700,2.012513671875,0.3070077896118164,0.16721105575561523,-0.1939105987548828
1675156296390513700,2.032513671875,-0.994410514831543,0.28755998611450195,0.50328528881073
1675156296410513700,2.052513671875,-1.2902212142944336,0.03448450565338135,0.6328426599502563
1675156296430513700,2.072513671875,-1.1011009216308594,-0.3728454113006592,0.4001959562301636
1675156296450513700,2.092513671875,-0.3673858642578125,-0.30525898933410645,0.3476294279098511
1675156296470513700,2.112513671875,-0.1711864471435547,-0.997888445854187,0.2907891273498535
1675156296490513700,2.132513671875,-0.06934356689453125,-0.836773157119751,-0.3675096035003662
1675156296510513700,2.152513671875,0.7956075668334961,0.5504622459411621,-0.7808480262756348
1675156296530513700,2.172513671875,0.2294940948486328,-0.098419189453125,-0.30947422981262207
1675156296550513700,2.192513671875,-0.3154468536376953,-0.05623197555541992,-0.29030752182006836
1675156296570513700,2.212513671875,-0.48879003524780273,0.00991201400756836,-0.0960233211517334
1675156296590513700,2.232513671875,-0.8794541358947754,-0.4548048973083496,0.655951976776123
1675156296610513700,2.252513671875,-1.2344865798950195,-1.4215524196624756,1.3245904445648193
1675156296630513700,2.272513671875,-0.4291043281555176,-1.1975312232971191,0.8177368640899658
1675156296650513200,2.29251318359375,0.3336954116821289,-1.0315191745758057,0.46634483337402344
1675156296670512600,2.3125126953125,1.2600574493408203,-1.097956895828247,0.03086090087890625
1675156296690511600,2.33251171875,2.085402488708496,-1.1586830615997314,-0.28574705123901367
1675156296710510800,2.3525107421875,1.4753565788269043,-1.5776739120483398,0.5497002601623535
1675156296730510800,2.3725107421875,0.07994985580444336,-1.5870440006256104,1.2290740013122559
1675156296750510600,2.392510498046875,-1.9016928672790527,-0.6766471862792969,0.8627243041992188
1675156296770510800,2.4125107421875,-4.823400020599365,3.1584720611572266,-1.1039891242980957
1675156296790510600,2.432510498046875,-4.670075416564941,5.497832775115967,-2.5918402671813965
1675156296810510600,2.452510498046875,-2.486543655395508,3.5806031227111816,-2.314577102661133
1675156296830510600,2.472510498046875,-0.9172470569610596,-0.14652109146118164,-1.636815071105957
1675156296850510800,2.4925107421875,-1.6501927375793457,-1.2866578102111816,-0.2503695487976074
1675156296870510800,2.5125107421875,-2.31891131401062,-0.4968857765197754,1.0161828994750977
1675156296890510800,2.5325107421875,0.8327469825744629,-4.126072406768799,-1.2793478965759277
1675156296910510800,2.5525107421875,4.561983585357666,-4.136406898498535,-1.5484113693237305
1675156296930510800,2.5725107421875,3.7163472175598145,-2.841501474380493,-0.7340226173400879
1675156296950510800,2.5925107421875,0.5167696475982666,0.12544918060302734,-0.27167224884033203
1675156296970510800,2.6125107421875,-0.4073147773742676,1.1994900703430176,-0.2757086753845215
1675156296990510800,2.6325107421875,-1.0580108165740967,1.1795248985290527,0.5639405250549316
1675156297010510800,2.6525107421875,-0.764545202255249,0.7166037559509277,1.00838041305542
1675156297030510800,2.6725107421875,-0.9037356376647949,0.806673526763916,0.8517360687255859
1675156297050510800,2.6925107421875,-0.7510960102081299,1.2730927467346191,0.3274860382080078
1675156297070510800,2.7125107421875,-1.4276788234710693,2.671381711959839,-0.5385265350341797
1675156297090510800,2.7325107421875,-1.2892944812774658,1.8368172645568848,1.242044448852539
1675156297110510800,2.7525107421875,-0.499553918838501,1.8338871002197266,0.18283462524414062
1675156297130510800,2.7725107421875,2.916762351989746,2.8346211910247803,-4.245739936828613
1675156297150510800,2.7925107421875,0.3894031047821045,0.4954524040222168,-1.8167924880981445
1675156297170510800,2.8125107421875,0.9359983205795288,-0.9772763252258301,-1.689131736755371
1675156297190510800,2.8325107421875,-1.0761176347732544,1.674424648284912,-0.6930961608886719
1675156297210510800,2.8525107421875,-1.4393718242645264,0.668459415435791,-0.4206085205078125
1675156297230510800,2.8725107421875,-1.1854127645492554,-0.4418294429779053,-0.0095977783203125
1675156297250511400,2.892511474609375,-1.8937013149261475,-0.28171443939208984,0.784367561340332
1675156297270511900,2.912511962890625,-2.0930395126342773,-0.4729163646697998,0.5037145614624023
1675156297290513000,2.932512939453125,-2.020352602005005,-0.3447835445404053,0.3209362030029297
1675156297310513400,2.952513427734375,-1.0126134157180786,0.700653076171875,-0.19484901428222656
1675156297330513700,2.972513671875,1.4836353063583374,1.783036708831787,-1.7307662963867188
1675156297350513700,2.992513671875,2.283257484436035,2.003533363342285,-3.03879451751709
1675156297370513700,3.012513671875,0.8742202520370483,2.0556206703186035,-2.194211959838867
1675156297390513700,3.032513671875,-0.14524602890014648,0.7764139175415039,-3.1594161987304688
1675156297410514000,3.052513916015625,0.8629863262176514,0.9130687713623047,-2.89385986328125
1675156297430513700,3.072513671875,-1.2802050113677979,0.15350914001464844,-2.266993522644043
1675156297450513700,3.092513671875,1.4281787872314453,0.7902965545654297,-2.1584644317626953
1675156297470513700,3.112513671875,3.212643623352051,0.3948230743408203,-3.321718692779541
1675156297490514000,3.132513916015625,2.4289774894714355,1.209223985671997,-2.922006607055664
1675156297510513700,3.152513671875,-1.4810476303100586,1.7171869277954102,-1.017573356628418
1675156297530513700,3.172513671875,-4.000863075256348,0.9944634437561035,0.9120950698852539
1675156297550513700,3.192513671875,-3.5115013122558594,1.409754753112793,1.4227594137191772
1675156297570514000,3.212513916015625,-2.4358158111572266,0.9436368942260742,0.5750616788864136
1675156297590514000,3.232513916015625,-2.066434860229492,-0.38637518882751465,0.106353759765625
1675156297610514000,3.252513916015625,-3.3516602516174316,-0.46036839485168457,0.558640718460083
1675156297630514000,3.272513916015625,-3.600162982940674,0.07077622413635254,0.6627000570297241
1675156297650513200,3.29251318359375,-3.135133743286133,0.3401198387145996,0.5529509782791138
1675156297670512600,3.3125126953125,-1.6922345161437988,0.49253249168395996,0.37005797028541565
1675156297690511600,3.33251171875,-0.30557823181152344,-0.34386157989501953,0.37232881784439087
1675156297710510800,3.3525107421875,-0.24135780334472656,-1.0960171222686768,0.36377933621406555
1675156297730510800,3.3725107421875,-0.05980682373046875,-1.1122645139694214,0.5415784120559692
1675156297750511400,3.392511474609375,0.1198110580444336,-0.7578316926956177,0.33154651522636414
1675156297770511400,3.412511474609375,-0.5979652404785156,0.004727840423583984,-0.06076273322105408
1675156297790511400,3.432511474609375,-0.9460372924804688,0.13136053085327148,-0.0027487874031066895
1675156297810511400,3.452511474609375,-0.8651885986328125,-0.00390934944152832,0.005853980779647827
1675156297830511400,3.472511474609375,-0.5029010772705078,-0.057065725326538086,-0.07725220918655396
1675156297850511400,3.492511474609375,0.5766735076904297,-0.10840415954589844,-0.8070360422134399
1675156297870511400,3.512511474609375,0.6584978103637695,-0.4620239734649658,-0.9474136829376221
1675156297890511400,3.532511474609375,0.3103761672973633,-0.4258294105529785,-0.5362734794616699
1675156297910511400,3.552511474609375,0.27495479583740234,-0.20086407661437988,-0.5101473331451416
1675156297930511000,3.572510986328125,0.1720752716064453,-0.33279848098754883,-0.4865764379501343
1675156297950511000,3.592510986328125,0.0070018768310546875,-0.17780351638793945,-0.19992148876190186
1675156297970511000,3.612510986328125,0.019080162048339844,-0.00008177757263183594,-0.1767195463180542
1675156297990511400,3.632511474609375,0.23130035400390625,0.3860151767730713,-0.22316265106201172
1675156298010511000,3.652510986328125,0.30389976501464844,-0.0218961238861084,-0.0584031343460083
1675156298030511000,3.672510986328125,0.18786144256591797,-0.2370917797088623,0.3199491500854492
1675156298050511000,3.692510986328125,-0.07789134979248047,-0.3741426467895508,0.887273907661438
1675156298070511400,3.712511474609375,-0.6051597595214844,-0.7841347455978394,1.7918753623962402
1675156298090511000,3.732510986328125,-1.0168466567993164,-1.3873668909072876,2.3272571563720703
1675156298110511000,3.752510986328125,-1.0218992233276367,-0.8386123180389404,1.6743435859680176
1675156298130511000,3.772510986328125,-1.425626277923584,-0.3986093997955322,1.5522634983062744
1675156298150511000,3.792510986328125,-2.297847270965576,-0.23253393173217773,1.5587445497512817
1675156298170511000,3.812510986328125,-2.306570529937744,0.4894697666168213,0.742530107498169
1675156298190511000,3.832510986328125,-1.288792610168457,2.223078489303589,-1.1265721321105957
1675156298210511000,3.852510986328125,-0.3990044593811035,3.0018057823181152,-1.2561326026916504
1675156298230511000,3.872510986328125,0.4741172790527344,2.584583282470703,-0.06267595291137695
1675156298250512000,3.892511962890625,0.6460199356079102,1.9476017951965332,0.7455148696899414
1675156298270512400,3.912512451171875,0.3093557357788086,1.3289780616760254,0.10247135162353516
1675156298290513400,3.932513427734375,0.5258011817932129,0.9064731597900391,-0.41016292572021484
1675156298310514200,3.95251416015625,0.3805546760559082,0.6445107460021973,-0.20184898376464844
1675156298330514000,3.972513916015625,-0.1789259910583496,1.2213859558105469,-0.05011940002441406
1675156298350513700,3.992513671875,0.08095860481262207,1.9813380241394043,0.20440959930419922
1675156298370513700,4.012513671875,0.8332424163818359,1.721832275390625,0.38390541076660156
1675156298390513700,4.032513671875,2.1575891971588135,-0.10748529434204102,0.7033905982971191
1675156298410513700,4.052513671875,1.1300528049468994,-0.3720426559448242,0.33739185333251953
1675156298430513700,4.072513671875,0.9860849380493164,-0.48681163787841797,-0.20621442794799805
1675156298450513700,4.092513671875,1.2740981578826904,0.06166362762451172,0.6426715850830078
1675156298470513700,4.112513671875,-0.27009880542755127,-0.2352275848388672,1.8465135097503662
1675156298490513700,4.132513671875,-0.5232377052307129,-0.6619348526000977,1.8512091636657715
1675156298510513700,4.152513671875,-0.20649409294128418,-0.15149307250976562,1.300384521484375
1675156298530513700,4.172513671875,-0.1657809019088745,-0.26389408111572266,0.7203266620635986
1675156298550513700,4.192513671875,0.3384528160095215,0.008191108703613281,0.45859503746032715
1675156298570513700,4.212513671875,1.5332703590393066,0.31028175354003906,0.012878656387329102
1675156298590513700,4.232513671875,1.022833228111267,0.1761341094970703,0.3010835647583008
1675156298610513700,4.252513671875,0.5423697233200073,-1.3800129890441895,0.38683533668518066
1675156298630513700,4.272513671875,0.04413256794214249,-2.030179023742676,0.6517527103424072
1675156298650513700,4.292513671875,-0.22234511375427246,-1.665938377380371,0.9849430322647095
1675156298670513000,4.312512939453125,0.7721972465515137,-1.0836048126220703,-0.4315629005432129
1675156298690512100,4.33251220703125,1.8989964723587036,-0.5418281555175781,-0.9799528121948242
1675156298710511600,4.35251171875,2.00498628616333,-0.6377058029174805,-0.5624513626098633
1675156298730511400,4.372511474609375,2.006222724914551,-0.38638973236083984,-0.26806640625
1675156298750511400,4.392511474609375,0.18407124280929565,0.0722951889038086,0.8139358758926392
1675156298770511400,4.412511474609375,-0.34527820348739624,0.013658523559570312,1.0505433082580566
1675156298790511400,4.432511474609375,0.823845624923706,1.0986089706420898,0.07064294815063477
1675156298810511400,4.452511474609375,2.091370105743408,1.47882080078125,-0.29420948028564453
1675156298830511400,4.472511474609375,2.3916664123535156,0.9273872375488281,-0.5177278518676758
1675156298850511400,4.492511474609375,0.4230676293373108,0.7235937118530273,-0.28841066360473633
1675156298870511400,4.512511474609375,0.07528001070022583,1.0132522583007812,-0.16693854331970215
1675156298890511400,4.532511474609375,-0.09464108943939209,1.318039894104004,-1.083630084991455
1675156298910511400,4.552511474609375,0.6063458919525146,1.2876062393188477,-1.8475338220596313
1675156298930511400,4.572511474609375,0.890900194644928,1.5791950225830078,-1.7140374183654785
1675156298950511400,4.592511474609375,0.3240893483161926,1.7160615921020508,-1.6386936902999878
1675156298970511400,4.612511474609375,0.07673633098602295,1.4874753952026367,-1.5711489915847778
1675156298990511400,4.632511474609375,0.17078471183776855,1.0047016143798828,-2.111557722091675
1675156299010511400,4.652511474609375,0.42628079652786255,1.5803680419921875,-2.906724691390991
1675156299030511400,4.672511474609375,0.8322027325630188,2.3170948028564453,-2.9781343936920166
1675156299050511400,4.692511474609375,0.25816476345062256,2.803555488586426,-2.875143051147461
1675156299070511400,4.712511474609375,-0.696853518486023,2.1859560012817383,-2.8519604206085205
1675156299090511400,4.732511474609375,-0.19966286420822144,1.3419313430786133,-2.8450236320495605
1675156299110511400,4.752511474609375,-0.10733151435852051,1.5331668853759766,-2.816408634185791
1675156299130511400,4.772511474609375,-0.6077231764793396,2.647261619567871,-2.7650246620178223
1675156299150511400,4.792511474609375,-1.0198127031326294,3.087614059448242,-3.03767466545105
1675156299170511400,4.812511474609375,-0.7018343806266785,2.865532875061035,-3.0840377807617188
1675156299190511400,4.832511474609375,-0.5315443277359009,2.586700439453125,-2.7776174545288086
1675156299210511400,4.852511474609375,-1.321913480758667,1.9588298797607422,-2.6381568908691406
1675156299230511400,4.872511474609375,-1.8010749816894531,0.9068222045898438,-2.3819050788879395
1675156299250511400,4.892511474609375,-1.5575697422027588,0.6238765716552734,-2.296771287918091
1675156299270512000,4.91251220703125,-0.9539978504180908,1.095503807067871,-2.1634182929992676
1675156299290513000,4.932512939453125,-0.706570029258728,1.2581253051757812,-2.076592445373535
1675156299310513400,4.952513427734375,-0.8283785581588745,1.2953166961669922,-2.0903160572052
1675156299330513700,4.972513671875,-0.5172059535980225,0.46413135528564453,-1.6727075576782227
1675156299350513700,4.992513671875,-1.0803959369659424,-0.21192169189453125,-1.7509771585464478
1675156299370513700,5.012513671875,-1.1823647022247314,-0.11571311950683594,-2.114198684692383
1675156299390513700,5.032513671875,-1.9029293060302734,0.3986501693725586,-2.16646146774292
1675156299410513700,5.052513671875,-0.18215417861938477,0.6530675888061523,-2.69296932220459
1675156299430513700,5.072513671875,-2.342557907104492,0.7571525573730469,-2.0221214294433594
1675156299450513700,5.092513671875,-2.0536820888519287,-1.5897011756896973,-1.507650375366211
1675156299470513700,5.112513671875,-2.14861798286438,-1.5674042701721191,-1.4899275302886963
1675156299490513700,5.132513671875,-2.660494565963745,-1.021636962890625,-1.277451515197754
1675156299510513700,5.152513671875,-3.0810720920562744,-0.9540796279907227,-1.3641178607940674
1675156299530513700,5.172513671875,-3.0833535194396973,-0.9745693206787109,-1.5937650203704834
1675156299550513700,5.192513671875,-3.3988118171691895,0.08498954772949219,-0.8430704474449158
1675156299570513700,5.212513671875,-3.8199853897094727,0.23317813873291016,-0.6739541292190552
1675156299590513700,5.232513671875,-4.272239685058594,0.34745311737060547,-0.670438289642334
1675156299610513700,5.252513671875,-3.574014186859131,0.23722076416015625,-0.7731747627258301
1675156299630513700,5.272513671875,-4.1777448654174805,0.5886688232421875,-0.5132554173469543
1675156299650513000,5.292512939453125,-3.969114303588867,1.374293327331543,-0.4920143485069275
1675156299670512600,5.3125126953125,-3.306267023086548,2.50103759765625,0.5512770414352417
1675156299690511600,5.33251171875,-3.419753074645996,2.983379364013672,1.6073598861694336
1675156299710510800,5.3525107421875,-4.544198036193848,4.3055419921875,1.6176061630249023
1675156299730510800,5.3725107421875,-2.163069248199463,3.3197927474975586,0.8230694532394409
1675156299750510300,5.39251025390625,-1.3793091773986816,0.6012096405029297,0.9238402247428894
1675156299770510300,5.41251025390625,-1.5762619972229004,-0.2825031280517578,0.24290472269058228
1675156299790510300,5.43251025390625,1.1664700508117676,-0.3808774948120117,0.48019230365753174
1675156299810510300,5.45251025390625,2.2337584495544434,-0.7709341049194336,1.9543604850769043
1675156299830510300,5.47251025390625,-0.48737239837646484,-0.9868135452270508,3.305248260498047
1675156299850510300,5.49251025390625,1.3512983322143555,-1.197908878326416,1.437422275543213
1675156299870510300,5.51251025390625,1.4902911186218262,-1.6191143989562988,0.8277105093002319
1675156299890510300,5.53251025390625,-0.03452730178833008,-1.1447443962097168,1.2439264059066772
1675156299910510300,5.55251025390625,-1.9835662841796875,-0.8965063095092773,0.5205092430114746
1675156299930510300,5.57251025390625,-1.6492314338684082,-2.0623741149902344,-1.3565292358398438
1675156299950510300,5.59251025390625,-2.1244022846221924,-4.4116716384887695,-1.8991508483886719
1675156299970510300,5.61251025390625,-2.4961507320404053,-2.2162880897521973,-1.3950302600860596
1675156299990510300,5.63251025390625,1.5432538986206055,0.6615214347839355,-0.7147526741027832
1675156300010510300,5.65251025390625,3.8304271697998047,0.7142863273620605,-0.18781614303588867
1675156300030510300,5.67251025390625,3.9881792068481445,-2.628997325897217,0.9798080921173096
1675156300050510300,5.69251025390625,2.407132625579834,-4.64591121673584,0.4362673759460449
1675156300070510300,5.71251025390625,-4.195250511169434,2.4145212173461914,-1.8306553363800049
1675156300090510300,5.73251025390625,0.15439271926879883,-0.2831549644470215,-2.344289541244507
1675156300110510300,5.75251025390625,-0.9575185775756836,-3.43533992767334,-2.8522186279296875
1675156300130510300,5.77251025390625,-2.516305923461914,-2.7222840785980225,-3.791848659515381
1675156300150510300,5.79251025390625,-3.8104381561279297,-3.5456619262695312,-3.789860248565674
1675156300170510300,5.81251025390625,-1.6088285446166992,1.6931774616241455,-6.20165491104126
1675156300190510300,5.83251025390625,0.3699793815612793,4.332373142242432,-8.745820999145508
1675156300210510300,5.85251025390625,0.7000746726989746,5.185850143432617,-9.545469284057617
1675156300230510300,5.87251025390625,-0.47608232498168945,4.073258399963379,-8.000676155090332
1675156300250511000,5.892510986328125,-1.6077980995178223,3.0819859504699707,-4.546786308288574
1675156300270511400,5.912511474609375,-1.5822384357452393,1.9240710735321045,-0.9653148651123047
1675156300290512400,5.932512451171875,-0.34331977367401123,1.5782053470611572,1.4516348838806152
1675156300310513200,5.95251318359375,0.2797030806541443,2.2718608379364014,2.9221229553222656
1675156300330512600,5.9725126953125,0.6094885468482971,2.6426122188568115,3.281949520111084
1675156300350513400,5.992513427734375,0.47976386547088623,1.280552625656128,3.518798351287842
1675156300370513400,6.012513427734375,1.2980334758758545,0.16950631141662598,2.005507469177246
1675156300390513400,6.032513427734375,1.3173954486846924,0.5634822845458984,0.12296390533447266
1675156300410513400,6.052513427734375,3.9537699222564697,0.3476903438568115,-0.8301925659179688
1675156300430513200,6.07251318359375,13.818087577819824,-2.30460262298584,0.2421560287475586
1675156300450513200,6.09251318359375,0.7999825477600098,3.0976338386535645,0.5700759887695312
1675156300470513200,6.11251318359375,-3.2608511447906494,4.588921546936035,1.4327630996704102
1675156300490513400,6.132513427734375,-3.5845165252685547,2.924854040145874,1.9797687530517578
1675156300510513200,6.15251318359375,-2.048483371734619,1.0006494522094727,1.5050773620605469
1675156300530513200,6.17251318359375,0.4476730227470398,-1.8550913333892822,0.19658184051513672
1675156300550513200,6.19251318359375,1.6174358129501343,-6.861622333526611,-1.3063640594482422
1675156300570513400,6.212513427734375,1.1425060033798218,-8.668185234069824,-2.272144317626953
1675156300590513400,6.232513427734375,-2.789161443710327,-1.0765564441680908,-1.4138832092285156
1675156300610513400,6.252513427734375,-1.7657320499420166,1.2860419750213623,0.6102514266967773
1675156300630513400,6.272513427734375,-0.8209704160690308,0.04247280955314636,0.17256927490234375
1675156300650512600,6.2925126953125,-0.42004621028900146,-0.6009399890899658,-0.2618083953857422
1675156300670512000,6.31251220703125,0.5050503611564636,-0.7796756625175476,-0.2907381057739258
1675156300690511000,6.332510986328125,-0.7560890913009644,0.10162851214408875,-0.019901275634765625
1675156300710510300,6.35251025390625,-1.0319201946258545,0.22346624732017517,0.059355735778808594
1675156300730509800,6.372509765625,0.07697039842605591,-0.9099474549293518,1.0942010879516602
1675156300750509800,6.392509765625,-1.164364218711853,0.5679358243942261,-0.7099666595458984
1675156300770509800,6.412509765625,-0.9297943115234375,-0.15838059782981873,-0.11007881164550781
1675156300790509800,6.432509765625,-0.6320476531982422,0.005593597888946533,-0.0841217041015625
1675156300810509800,6.452509765625,-0.5257172584533691,0.010177388787269592,0.1327991485595703
1675156300830509800,6.472509765625,-1.1210699081420898,0.6095291972160339,0.054851531982421875
1675156300850509800,6.492509765625,-1.4088152647018433,1.0428025722503662,-0.8306179046630859
1675156300870509800,6.512509765625,-1.2894880771636963,0.43438684940338135,-2.556041717529297
1675156300890509800,6.532509765625,-1.1548247337341309,-0.2779535949230194,-4.593878746032715
1675156300910509800,6.552509765625,-0.8019665479660034,-1.3619530200958252,-6.60191535949707
1675156300930510300,6.57251025390625,0.794450044631958,-2.0069615840911865,-9.006670951843262
1675156300950510300,6.59251025390625,0.9003846645355225,-0.9248428344726562,-10.223190307617188
1675156300970510300,6.61251025390625,-0.3950421214103699,3.861637830734253,-13.671152114868164
1675156300990510300,6.63251025390625,-0.3711801767349243,2.7022836208343506,-6.947304725646973
1675156301010510300,6.65251025390625,-3.001411199569702,0.7160489559173584,9.312081336975098
1675156301030510300,6.67251025390625,-6.758023738861084,1.5374101400375366,12.39464282989502
1675156301050510300,6.69251025390625,-4.2426371574401855,-2.451420783996582,13.714620590209961
1675156301070510300,6.71251025390625,5.220109939575195,-8.599066734313965,17.688322067260742
1675156301090510300,6.73251025390625,6.7620062828063965,-7.410564422607422,6.927913665771484
1675156301110510300,6.75251025390625,1.22003173828125,-3.0277583599090576,-1.8509178161621094
1675156301130510300,6.77251025390625,-0.6917355060577393,1.6224408149719238,-5.694544792175293
1675156301150510300,6.79251025390625,0.7849656343460083,2.5066118240356445,-4.582793235778809
1675156301170510300,6.81251025390625,-0.9030133485794067,0.4387669563293457,0.6194314956665039
1675156301190510300,6.83251025390625,-0.7209159135818481,-0.19085079431533813,0.9619665145874023
1675156301210510300,6.85251025390625,-0.5299087762832642,0.3579038977622986,-0.26406002044677734
1675156301230510300,6.87251025390625,-0.576047420501709,0.2855287194252014,-0.14329051971435547
1675156301250510800,6.8925107421875,-1.0549274682998657,0.39350777864456177,0.07745742797851562
1675156301270511600,6.91251171875,-0.6764216423034668,-0.00603485107421875,-0.25528717041015625
1675156301290512400,6.932512451171875,-0.2756897211074829,-0.4229801893234253,-0.5557832717895508
1675156301310513200,6.95251318359375,-0.5133212804794312,0.24802666902542114,0.14055919647216797
1675156301330513700,6.972513671875,-0.3307598829269409,0.4828171133995056,0.6432056427001953
1675156301350513700,6.992513671875,-0.2076888084411621,-0.18999770283699036,0.043892860412597656
1675156301370513700,7.012513671875,-0.220289945602417,-0.5616021752357483,-0.25383758544921875
1675156301390513700,7.032513671875,-0.025528430938720703,-0.3710883855819702,-0.34812164306640625
1675156301410513700,7.052513671875,-0.17320966720581055,0.08482259511947632,-0.21723270416259766
1675156301430513700,7.072513671875,-0.013130664825439453,0.09397679567337036,-0.13950634002685547
1675156301450513700,7.092513671875,0.07968795299530029,-0.22756901383399963,-0.1287698745727539
1675156301470513700,7.112513671875,0.09437394142150879,-0.35086628794670105,-0.10360908508300781
1675156301490513700,7.132513671875,-0.03344929218292236,-0.05334758758544922,-0.1769123077392578
1675156301510513700,7.152513671875,-0.0886228084564209,0.23869389295578003,-0.2072887420654297
1675156301530513700,7.172513671875,-0.06502044200897217,0.4521387815475464,-0.24453449249267578
1675156301550513700,7.192513671875,0.09547168016433716,0.2440946102142334,-0.19220352172851562
1675156301570513700,7.212513671875,0.24314594268798828,-0.07488048076629639,-0.1524810791015625
1675156301590513700,7.232513671875,0.17552608251571655,-0.1356593370437622,-0.06457328796386719
1675156301610513700,7.252513671875,-0.03862577676773071,0.3038736581802368,-0.06437873840332031
1675156301630513700,7.272513671875,-0.03405487537384033,0.21990764141082764,-0.11901378631591797
1675156301650513000,7.292512939453125,-0.2273620367050171,-0.1984475553035736,-0.12840938568115234
1675156301670512400,7.312512451171875,-0.1870148777961731,-0.21441465616226196,-0.15483760833740234
1675156301690511400,7.332511474609375,-0.2071160078048706,0.008178353309631348,-0.16971683502197266
1675156301710510800,7.3525107421875,-0.13486558198928833,0.27481764554977417,-0.08993244171142578
1675156301730510800,7.3725107421875,-0.13375848531723022,-0.0958101749420166,-0.4418048858642578
1675156301750510800,7.3925107421875,-0.13485795259475708,-0.1377648115158081,-0.45087623596191406
1675156301770510800,7.4125107421875,-0.01570260524749756,-0.20048022270202637,-0.22153663635253906
1675156301790510800,7.4325107421875,-0.05232173204421997,-0.17355188727378845,-0.0726470947265625
1675156301810510800,7.4525107421875,0.06957447528839111,-0.3281169831752777,-0.02219676971435547
1675156301830510800,7.4725107421875,0.062391817569732666,-0.318207323551178,-0.04859352111816406
1675156301850510800,7.4925107421875,0.09772443771362305,-0.21970658004283905,-0.15868091583251953
1675156301870510800,7.5125107421875,0.09493863582611084,-0.13334262371063232,-0.09631156921386719
1675156301890510800,7.5325107421875,0.1541641354560852,-0.058067888021469116,0.016374588012695312
1675156301910510800,7.5525107421875,0.20168575644493103,-0.011687219142913818,0.0262298583984375
1675156301930510800,7.5725107421875,0.212133526802063,0.029998838901519775,-0.18422317504882812
1675156301950510800,7.5925107421875,0.26767829060554504,0.062293678522109985,-0.17225360870361328
1675156301970510800,7.6125107421875,0.1237286627292633,0.06877106428146362,-0.02655792236328125
1675156301990510800,7.6325107421875,-0.04413259029388428,0.21421849727630615,-0.1612253189086914
1675156302010510800,7.6525107421875,-0.09136253595352173,0.19588032364845276,-0.18579673767089844
1675156302030510800,7.6725107421875,-0.23900282382965088,0.25734075903892517,-0.21782970428466797
1675156302050510800,7.6925107421875,-0.2577162981033325,0.37839844822883606,-0.10405540466308594
1675156302070510800,7.7125107421875,-0.28705576062202454,0.3712748885154724,0.09507179260253906
1675156302090510800,7.7325107421875,-0.29643675684928894,0.12174248695373535,0.015768051147460938
1675156302110510800,7.7525107421875,-0.3380272686481476,0.21549272537231445,-0.14242267608642578
1675156302130510800,7.7725107421875,-0.24357959628105164,0.1809089481830597,-0.06357955932617188
1675156302150510800,7.7925107421875,-0.09553951025009155,0.11779928207397461,0.036769866943359375
1675156302170510800,7.8125107421875,0.060801953077316284,0.0029453933238983154,-0.030050277709960938
1675156302190510800,7.8325107421875,0.09012743830680847,-0.07663899660110474,-0.010190963745117188
1675156302210510800,7.8525107421875,0.1632651388645172,-0.3130103051662445,-0.1387939453125
1675156302230510800,7.8725107421875,0.2714917063713074,-0.18776917457580566,-0.22913742065429688
1675156302250511600,7.89251171875,0.17527300119400024,-0.016757935285568237,-0.10648345947265625
1675156302270512000,7.91251220703125,0.18622399866580963,-0.03230243921279907,-0.0006837844848632812
1675156302290513200,7.93251318359375,0.27438920736312866,-0.09463322162628174,-0.050482749938964844
1675156302310513700,7.952513671875,0.2868792712688446,-0.11868688464164734,-0.21286487579345703
1675156302330513700,7.972513671875,0.08358663320541382,-0.044158875942230225,-0.17847633361816406
1675156302350513700,7.992513671875,0.06714403629302979,-0.06239360570907593,-0.10587215423583984
1675156302370513700,8.012513671875,0.10592354834079742,-0.04348376393318176,-0.12919235229492188
1675156302390513700,8.032513671875,0.12165655195713043,-0.024816155433654785,-0.10469245910644531
1675156302410513700,8.052513671875,0.08237902820110321,0.009759187698364258,-0.10665702819824219
1675156302430513700,8.072513671875,0.20724663138389587,-0.0030772387981414795,-0.10858821868896484
1675156302450513700,8.092513671875,0.16668927669525146,-0.08154752850532532,-0.0792694091796875
1675156302470513700,8.112513671875,0.1427864134311676,-0.17608489096164703,-0.0667104721069336
1675156302490513700,8.132513671875,0.08724632859230042,-0.06163051724433899,-0.14273834228515625
1675156302510513700,8.152513671875,0.15557488799095154,-0.13247692584991455,-0.1541452407836914
1675156302530513700,8.172513671875,0.1451519876718521,-0.2711106240749359,-0.09840583801269531
1675156302550513700,8.192513671875,0.09547405689954758,-0.12604133784770966,-0.11444664001464844
1675156302570513700,8.212513671875,0.12344050407409668,-0.061897069215774536,-0.03961944580078125
1675156302590513700,8.232513671875,0.2092626392841339,-0.0797872543334961,-0.051090240478515625
1675156302610513700,8.252513671875,0.13590455055236816,-0.11789749562740326,-0.007580757141113281
1675156302630513700,8.272513671875,0.13275545835494995,-0.11021657288074493,-0.13169479370117188
1675156302650513400,8.292513427734375,0.15294599533081055,-0.1479264199733734,-0.15289306640625
1675156302670513000,8.312512939453125,0.09446634352207184,-0.035667821764945984,-0.09990787506103516
1675156302690512000,8.332511962890624,-0.0016118139028549194,0.10135230422019958,-0.10686111450195312
1675156302710511000,8.352510986328125,-0.012086451053619385,-0.016195356845855713,-0.12114715576171875
1675156302730511000,8.372510986328125,0.01475420594215393,-0.05900251865386963,-0.01817035675048828
1675156302750510800,8.3925107421875,0.05432605743408203,0.07351939380168915,-0.015722274780273438
1675156302770510800,8.4125107421875,0.1589607298374176,0.021768763661384583,-0.02765655517578125
1675156302790510800,8.4325107421875,0.16781243681907654,0.017653435468673706,-0.09225845336914062
1675156302810510800,8.4525107421875,0.08197890967130661,0.02959054708480835,-0.1425027847290039
1675156302830510800,8.4725107421875,0.0644414871931076,0.047389522194862366,-0.11854267120361328
1675156302850510800,8.4925107421875,0.07701046764850616,0.03619711101055145,-0.108978271484375
1675156302870510800,8.5125107421875,0.09731031954288483,-0.07586918771266937,-0.13051605224609375
1675156302890510800,8.5325107421875,0.03682984411716461,-0.12030629068613052,-0.17602157592773438
1675156302910510800,8.5525107421875,0.02110883593559265,-0.05652005970478058,-0.24782657623291016
1675156302930510800,8.5725107421875,-0.007133215665817261,-0.051684603095054626,-0.19029998779296875
1675156302950510800,8.5925107421875,0.007861822843551636,0.047393620014190674,-0.15199565887451172
1675156302970510800,8.6125107421875,-0.0074216872453689575,0.0704076886177063,-0.1280832290649414
1675156302990510800,8.6325107421875,0.04426877200603485,0.06682984530925751,-0.18320941925048828
1675156303010510800,8.6525107421875,0.08367693424224854,0.22025515139102936,-0.1592721939086914
1675156303030510800,8.6725107421875,0.01986585557460785,0.36356121301651,-0.18798542022705078
1675156303050510800,8.6925107421875,0.04572334885597229,0.044039636850357056,-0.23114395141601562
1675156303070510800,8.7125107421875,-0.04956190288066864,-0.0738707110285759,-0.15937232971191406
1675156303090510800,8.7325107421875,-0.03630465269088745,0.08220043778419495,-0.10671138763427734
1675156303110510800,8.7525107421875,0.11496669054031372,0.19959846138954163,-0.09476089477539062
1675156303130510800,8.7725107421875,0.08051233738660812,0.15458324551582336,-0.044531822204589844
1675156303150510800,8.7925107421875,0.01654839515686035,0.15190701186656952,-0.11645984649658203
1675156303170510800,8.8125107421875,-0.013311609625816345,0.028481706976890564,-0.2315378189086914
1675156303190510800,8.8325107421875,-0.003201708197593689,-0.05365091562271118,-0.22921466827392578
1675156303210510800,8.8525107421875,-0.009251669049263,0.04724894464015961,-0.12868499755859375
1675156303230510800,8.8725107421875,0.017802923917770386,0.05126781761646271,-0.07837677001953125
1675156303250511000,8.892510986328125,0.027520030736923218,0.04702770709991455,-0.14536571502685547
1675156303270511600,8.91251171875,-0.004593908786773682,-0.04982610046863556,-0.2673788070678711
1675156303290512600,8.9325126953125,0.01397666335105896,0.02925737202167511,-0.22891902923583984
1675156303310513400,8.952513427734376,-0.0010841339826583862,0.08397972583770752,-0.10188961029052734
1675156303330513400,8.972513427734375,0.036183372139930725,0.057177335023880005,-0.010827064514160156
1675156303350513700,8.992513671875,0.06164763122797012,-0.022253915667533875,-0.0466766357421875
1675156303370513700,9.012513671875,0.026954203844070435,-0.04825696349143982,-0.12565326690673828
1675156303390513700,9.032513671875,-0.05790552496910095,-0.062147244811058044,-0.22852706909179688
1675156303410513700,9.052513671875,-0.04881006479263306,-0.03392215073108673,-0.25956249237060547
1675156303430513700,9.072513671875,-0.058742985129356384,0.03751111030578613,-0.18286895751953125
1675156303450513700,9.092513671875,-0.07990530133247375,0.08707885444164276,-0.03914833068847656
1675156303470513700,9.112513671875,-0.09907586872577667,0.16224485635757446,-0.03674030303955078
1675156303490513700,9.132513671875,-0.05866393446922302,0.18930968642234802,-0.15888500213623047
1675156303510513700,9.152513671875,0.18148821592330933,-0.23159721493721008,-0.2881898880004883
1675156303530513700,9.172513671875,0.06401464343070984,0.542915940284729,-0.08210372924804688
1675156303550513700,9.192513671875,0.02609752118587494,-0.009533554315567017,0.044798851013183594
1675156303570513700,9.212513671875,-0.04769274592399597,0.25240272283554077,-0.11797809600830078
1675156303590513700,9.232513671875,-0.0906287282705307,0.1633402705192566,-0.10614871978759766
1675156303610513700,9.252513671875,0.0983356460928917,-0.18317747116088867,-0.058319091796875
1675156303630513700,9.272513671875,0.0021085143089294434,-0.24248190224170685,-0.24022960662841797
1675156303650513200,9.29251318359375,-0.0911523699760437,-0.1502174437046051,-0.25220394134521484
1675156303670513200,9.31251318359375,-0.11856448650360107,-0.01826513558626175,-0.08228492736816406
1675156303690512100,9.33251220703125,-0.0888543576002121,0.21252280473709106,0.04686260223388672
1675156303710511400,9.352511474609376,-0.15483085811138153,0.28568464517593384,0.0922088623046875
1675156303730511400,9.372511474609375,-0.18812371790409088,0.28008610010147095,0.03935718536376953
1675156303750511000,9.392510986328125,-0.09406708180904388,0.20211130380630493,-0.2625389099121094
1675156303770511000,9.412510986328124,-0.10878543555736542,0.09383359551429749,-0.2173166275024414
1675156303790511000,9.432510986328126,-0.038104429841041565,-0.030659496784210205,-0.1914072036743164
1675156303810511000,9.452510986328125,0.11342361569404602,-0.14207974076271057,-0.22762584686279297
1675156303830511000,9.472510986328125,0.15844985842704773,-0.021475479006767273,0.04999542236328125
1675156303850511000,9.492510986328124,0.07941362261772156,0.02342645823955536,0.08591747283935547
1675156303870511000,9.512510986328126,-0.030343160033226013,0.07328149676322937,-0.1224508285522461
1675156303890511000,9.532510986328125,-0.011751428246498108,-0.3387243151664734,-0.23511695861816406
1675156303910511000,9.552510986328125,-0.17177094519138336,-0.2712235748767853,-0.20162105560302734
1675156303930511000,9.572510986328124,-0.1569294035434723,-0.1505751758813858,-0.2565727233886719
1675156303950511000,9.592510986328126,-0.20461809635162354,-0.023853018879890442,-0.3305988311767578
1675156303970511000,9.612510986328125,-0.0942276269197464,0.13457374274730682,-0.41163158416748047
1675156303990511000,9.632510986328125,-0.08942840993404388,0.11246287822723389,-0.250732421875
1675156304010511000,9.652510986328124,0.015785008668899536,0.011598676443099976,-0.15692710876464844
1675156304030511000,9.672510986328126,0.13948485255241394,-0.3074066638946533,-0.1853351593017578
1675156304050511000,9.692510986328125,0.15589997172355652,0.061503246426582336,-0.14425945281982422
1675156304070511000,9.712510986328125,0.19415393471717834,0.36610138416290283,0.035759925842285156
1675156304090511000,9.732510986328125,0.23144270479679108,0.5206087827682495,0.04098701477050781
1675156304110511000,9.752510986328126,0.2055349200963974,0.5983359813690186,-0.2030487060546875
1675156304130511000,9.772510986328125,0.27138519287109375,0.18072620034217834,-0.2102975845336914
1675156304150511000,9.792510986328125,0.2701208293437958,-0.04024578630924225,-0.0043792724609375
1675156304170511000,9.812510986328125,0.17747563123703003,0.3262675404548645,0.010100364685058594
1675156304190511000,9.832510986328124,0.05461745336651802,0.5176183581352234,-0.12636470794677734
1675156304210511000,9.852510986328125,0.007217222824692726,-0.04933357238769531,-0.3755331039428711
1675156304230511000,9.872510986328125,-0.14543958008289337,0.15557022392749786,-0.31585693359375
1675156304250374000,9.892373779296875,0.02808256447315216,0.2697208523750305,-0.17246723175048828
1675156304270374000,9.912373779296875,-0.014616306871175766,0.0643126517534256,-0.2061929702758789
1675156304290374700,9.932374755859374,-0.05669126287102699,-0.030787751078605652,-0.30196094512939453
1675156304310375400,9.95237548828125,-0.16451628506183624,-0.28571000695228577,-0.22528743743896484
1675156304330375400,9.97237548828125,-0.3498188555240631,-0.09379841387271881,0.15773487091064453
1675156304350375700,9.992375732421875,-0.21327900886535645,0.12958179414272308,-0.0363616943359375
1675156304370375700,10.012375732421875,-0.14986976981163025,0.07352113723754883,-0.06772899627685547
1675156304390375700,10.032375732421874,0.06334663927555084,0.049118772149086,-0.25469207763671875
1675156304410375700,10.052375732421876,0.05374482274055481,-0.039512649178504944,-0.2573995590209961
1675156304430375700,10.072375732421875,-0.01341848075389862,-0.07399126142263412,-0.2626056671142578
1675156304450375700,10.092375732421875,0.06065376102924347,-0.22587957978248596,-0.2726163864135742
1675156304470375700,10.112375732421874,0.0415499210357666,-0.30570876598358154,-0.2370777130126953
1675156304490375700,10.132375732421876,-0.01832917332649231,-0.22687910497188568,-0.12494373321533203
1675156304510375700,10.152375732421875,-0.07802402973175049,-0.06826046854257584,-0.18295764923095703
1675156304530375700,10.172375732421875,0.0030785202980041504,0.12662002444267273,-0.12865924835205078
1675156304550375700,10.192375732421874,0.04246491193771362,0.035902366042137146,0.2654914855957031
1675156304570375700,10.212375732421876,0.01749005913734436,0.13429097831249237,0.2744102478027344
1675156304590375700,10.232375732421875,0.09270289540290833,0.6847758889198303,0.013027191162109375
1675156304610375700,10.252375732421875,0.10573545098304749,0.406591534614563,-0.037994384765625
1675156304630375700,10.272375732421875,0.03819018602371216,0.21399669349193573,0.020873069763183594
1675156304650375200,10.292375244140626,-0.1815313994884491,0.34009310603141785,0.05386829376220703
1675156304670374400,10.31237451171875,-0.022997677326202393,-0.18710896372795105,0.03495979309082031
1675156304690373600,10.33237353515625,-0.15000876784324646,-0.3692563772201538,0.008947372436523438
1675156304710372900,10.352372802734376,-0.09946060180664062,-0.41301587224006653,0.09285449981689453
1675156304730339600,10.372339599609376,0.014823824167251587,-0.5771633386611938,-0.07690906524658203
1675156304750305800,10.392305908203125,0.011208504438400269,-0.570575475692749,-0.11478710174560547
1675156304770272500,10.4122724609375,0.013454198837280273,-0.4786224663257599,-0.25079345703125
1675156304790239200,10.4322392578125,0.05870303511619568,-0.38257598876953125,-0.3390798568725586
1675156304810206000,10.4522060546875,0.08103755116462708,-0.4489378035068512,-0.32931041717529297
1675156304830172400,10.47217236328125,0.2786656320095062,-0.3666689991950989,-0.07069969177246094
1675156304850139100,10.49213916015625,0.2185715138912201,-0.3698796331882477,-0.03968620300292969
1675156304870105900,10.51210595703125,0.04636743664741516,-0.5107422471046448,-0.19807147979736328
1675156304890072600,10.532072509765625,-0.0017513036727905273,-0.5792746543884277,-0.16986656188964844
1675156304910039300,10.552039306640625,-0.04264301061630249,-0.4290517568588257,-0.06578731536865234
1675156304930005800,10.572005859375,-0.10579589009284973,-0.3372749984264374,-0.050507545471191406
1675156304949972500,10.591972412109374,-0.2589613199234009,-0.29164379835128784,-0.2747230529785156
1675156304969939200,10.611939208984374,-0.3271424472332001,-0.49896907806396484,-0.4845457077026367
1675156304989906000,10.631906005859374,-0.33499136567115784,-0.5943430662155151,-0.5578460693359375
1675156305009872400,10.651872314453126,-0.17521265149116516,-0.6438218355178833,-0.3296079635620117
1675156305029839000,10.671839111328126,-0.17467984557151794,-0.5693879127502441,-0.16130733489990234
1675156305049805800,10.691805908203126,-0.36089304089546204,-0.3957609534263611,-0.04338550567626953
1675156305069772500,10.7117724609375,-0.33838093280792236,-0.3183639347553253,-0.1385631561279297
1675156305089739300,10.7317392578125,-0.415590763092041,-0.3263339102268219,-0.15204238891601562
1675156305109705700,10.751705810546875,-0.4411434531211853,-0.3310372233390808,-0.009499549865722656
1675156305129672400,10.77167236328125,-0.3949461579322815,-0.24595654010772705,0.18126869201660156
1675156305149639200,10.79163916015625,-0.5216850638389587,-0.08603811264038086,0.19746971130371094
1675156305169606000,10.81160595703125,-0.5874446630477905,-0.14044684171676636,0.21439075469970703
1675156305189572600,10.831572509765625,-0.48266398906707764,-0.33421647548675537,0.14376354217529297
1675156305209539000,10.8515390625,0.021594583988189697,-0.23563772439956665,-0.3454933166503906
1675156305229505800,10.871505859375,-0.12913140654563904,0.5324831008911133,-0.4929046630859375
1675156305249473300,10.891473388671875,-0.2563924789428711,0.3740452229976654,-0.0027914047241210938
1675156305269440500,10.9114404296875,0.2545364797115326,-0.04099982976913452,-0.34812259674072266
1675156305289408000,10.931407958984375,0.4694913625717163,0.12495791912078857,-0.4406318664550781
1675156305309375500,10.95137548828125,0.501227617263794,0.3873006999492645,-0.14358234405517578
1675156305329375500,10.97137548828125,0.4572077691555023,0.37648439407348633,-0.3660106658935547
1675156305349375700,10.991375732421876,0.47150182723999023,0.14328882098197937,-0.33696937561035156
1675156305369375700,11.011375732421875,0.5500360727310181,-0.06448096036911011,-0.1283721923828125
1675156305389375700,11.031375732421875,0.7524344325065613,0.039120882749557495,0.11577033996582031
1675156305409375700,11.051375732421874,0.8605848550796509,0.21603873372077942,-0.05729484558105469
1675156305429375700,11.071375732421876,0.5970295667648315,0.2504977285861969,-0.2860288619995117
1675156305449375700,11.091375732421875,0.5407209992408752,0.3516097962856293,-0.42159366607666016
1675156305469375700,11.111375732421875,0.5498842000961304,0.3876560926437378,-0.39220428466796875
1675156305489375700,11.131375732421875,0.6438742876052856,0.4739663004875183,-0.23636436462402344
1675156305509375700,11.151375732421876,0.6198083162307739,0.46275925636291504,-0.02807140350341797
1675156305529375700,11.171375732421875,0.5949562191963196,0.3257850408554077,0.012486457824707031
1675156305549375700,11.191375732421875,0.513837456703186,0.322571337223053,0.09840679168701172
1675156305569375700,11.211375732421875,0.40156668424606323,0.22967442870140076,-0.012135505676269531
1675156305589375700,11.231375732421874,0.10136502981185913,-0.003139466978609562,-0.14917850494384766
1675156305609375700,11.251375732421875,-0.22631210088729858,-0.04474719613790512,-0.27825927734375
1675156305629375700,11.271375732421875,-0.2766442894935608,-0.004234861582517624,-0.3586387634277344
1675156305649375000,11.291375,-0.5399560928344727,0.15005993843078613,-0.19269466400146484
1675156305669374500,11.31137451171875,-0.8679815530776978,0.18106499314308167,-0.11711978912353516
1675156305689373400,11.33137353515625,-0.6838919520378113,0.3397197723388672,-0.013783454895019531
1675156305709373000,11.351373046875,-0.39823275804519653,0.29212796688079834,0.10690593719482422
1675156305729372200,11.3713720703125,-0.15426701307296753,0.3001183867454529,0.1911754608154297
1675156305749371400,11.391371337890625,0.07653844356536865,0.23430708050727844,0.35076427459716797
1675156305769371400,11.411371337890625,0.03646206855773926,0.2922896146774292,0.4111909866333008
1675156305789371400,11.431371337890624,-0.2543073892593384,0.3892570734024048,0.2463092803955078
1675156305809371400,11.451371337890626,-0.5155627727508545,0.2741357982158661,-0.0171356201171875
1675156305829371400,11.471371337890625,-0.5677028894424438,-0.07778085768222809,-0.38357067108154297
1675156305849371400,11.491371337890625,-0.372951865196228,-0.253576397895813,-0.36405181884765625
1675156305869371400,11.511371337890624,-0.38131606578826904,-0.07588672637939453,-0.36329174041748047
1675156305889371400,11.531371337890626,-0.48518890142440796,0.14281418919563293,-0.25744056701660156
1675156305909371400,11.551371337890625,-0.43020689487457275,0.0786629319190979,-0.25458526611328125
1675156305929371400,11.571371337890625,-0.26789718866348267,-0.0013531744480133057,-0.05084991455078125
1675156305949371400,11.591371337890624,-0.06694841384887695,0.13052141666412354,0.10931873321533203
1675156305969371400,11.611371337890626,-0.21284449100494385,0.44359278678894043,-0.033745765686035156
1675156305989371100,11.63137109375,-0.47631651163101196,0.5641506910324097,-0.17115116119384766
1675156306009371100,11.65137109375,-0.546907901763916,0.5681862235069275,-0.2033224105834961
1675156306029371100,11.67137109375,-0.36055874824523926,0.29881781339645386,0.1955404281616211
1675156306049371100,11.69137109375,0.058423519134521484,0.11282706260681152,0.25926780700683594
1675156306069371100,11.71137109375,0.22808492183685303,0.042505860328674316,0.29045867919921875
1675156306089371100,11.73137109375,0.0008980035781860352,0.13832473754882812,0.44657230377197266
1675156306109371100,11.75137109375,-0.22371065616607666,0.2719575762748718,0.08542919158935547
1675156306129371100,11.77137109375,-0.3203847408294678,0.29543250799179077,-0.0284423828125
1675156306149371100,11.79137109375,-0.42834901809692383,0.9292986392974854,0.5947599411010742
1675156306169371100,11.81137109375,-0.34269869327545166,1.132826805114746,0.878779411315918
1675156306189371100,11.83137109375,-0.9342736601829529,0.8572808504104614,0.9743108749389648
1675156306209371100,11.85137109375,-1.0838866233825684,0.27319180965423584,0.6053180694580078
1675156306229371100,11.87137109375,-0.6755086183547974,0.05217301845550537,-0.3101644515991211
1675156306249372000,11.891371826171875,-0.2807912826538086,0.1844184398651123,-1.2132549285888672
1675156306269372400,11.911372314453125,-0.4197653532028198,0.6640890836715698,-1.191176414489746
1675156306289373400,11.93137353515625,-0.49688029289245605,1.067204475402832,-0.9068851470947266
1675156306309374000,11.9513740234375,-0.8517529964447021,1.0581539869308472,-0.794306755065918
1675156306329374700,11.971374755859374,-1.1709673404693604,1.0358798503875732,-0.7827377319335938
1675156306349375500,11.99137548828125,-1.5278490781784058,0.853293776512146,-0.9533176422119141
1675156306369375500,12.01137548828125,-2.3153281211853027,0.912189245223999,-1.168351173400879
1675156306389375500,12.03137548828125,-2.729491710662842,0.7895641326904297,-1.4612846374511719
1675156306409375500,12.05137548828125,-3.321883201599121,-0.31488215923309326,-2.764993667602539
1675156306429375500,12.07137548828125,-3.4749655723571777,-0.5871378183364868,-3.354924201965332
1675156306449375500,12.09137548828125,-2.1757493019104004,-0.5431000590324402,-4.106871604919434
1675156306469375500,12.11137548828125,-2.93283748626709,-0.2521097660064697,-3.096358299255371
1675156306489375500,12.13137548828125,-3.1541593074798584,0.0476682186126709,-2.30246639251709
1675156306509375500,12.15137548828125,-3.791621685028076,0.34090280532836914,-0.7842445373535156
1675156306529375500,12.17137548828125,-3.8026411533355713,0.23388969898223877,0.40549278259277344
1675156306549375500,12.19137548828125,-3.95731258392334,0.18851113319396973,1.5889101028442383
1675156306569375500,12.21137548828125,-4.077793598175049,0.3293118476867676,3.3495607376098633
1675156306589375700,12.231375732421874,3.0112764835357666,-0.1250288486480713,3.654466152191162
1675156306609375700,12.251375732421875,5.6227288246154785,-2.171031951904297,0.8757972717285156
1675156306629375700,12.271375732421875,0.7803258895874023,-2.3008873462677,4.511101245880127
1675156306649375200,12.291375244140625,1.3166007995605469,-1.8489314317703247,4.160277843475342
1675156306669374500,12.31137451171875,1.7800509929656982,-2.0892534255981445,2.0678820610046387
1675156306689373700,12.331373779296875,2.7809340953826904,-0.32442396879196167,-3.737401008605957
1675156306709373200,12.351373291015625,2.051846504211426,0.5352779626846313,-2.585139274597168
1675156306729373200,12.371373291015624,1.7858986854553223,0.747983455657959,-2.713412284851074
1675156306749372400,12.391372314453125,0.9444875717163086,0.41633689403533936,-5.826319694519043
1675156306769372400,12.411372314453125,0.375917911529541,1.2146754264831543,-6.519826889038086
1675156306789372400,12.431372314453125,-0.5959104299545288,1.4465162754058838,-6.162489891052246
1675156306809372400,12.451372314453126,-1.5497243404388428,1.2722439765930176,-5.9761762619018555
1675156306829372400,12.471372314453125,-1.9104344844818115,1.3642449378967285,-5.921689987182617
1675156306849372400,12.491372314453125,-1.1066313982009888,-0.27898967266082764,-4.551753997802734
1675156306869372400,12.511372314453125,-1.0231144428253174,-1.835072636604309,-1.6955022811889648
1675156306889372400,12.531372314453124,-1.3501977920532227,-2.255260467529297,1.8051204681396484
1675156306909372400,12.551372314453126,-3.382042646408081,-2.153482675552368,5.4374003410339355
1675156306929372400,12.571372314453125,-3.0671701431274414,-2.251089096069336,7.602872371673584
1675156306949372400,12.591372314453125,-1.1341760158538818,-2.3914382457733154,8.301619529724121
1675156306969372400,12.611372314453124,-1.8496317863464355,-2.667146682739258,9.590727806091309
1675156306989372400,12.631372314453126,-2.475191116333008,-3.1538264751434326,10.663787841796875
1675156307009372400,12.651372314453125,1.8054099082946777,-3.621582269668579,10.644498825073242
1675156307029372400,12.671372314453125,11.864975929260254,2.5698721408843994,3.2391562461853027
1675156307049372400,12.691372314453124,-2.8080148696899414,7.635101795196533,-2.984816551208496
1675156307069372400,12.711372314453126,3.8990306854248047,3.315830707550049,-6.361001014709473
1675156307089372400,12.731372314453125,3.745351791381836,-2.3121447563171387,-8.433016777038574
1675156307109372400,12.751372314453125,1.3751314878463745,0.9152467250823975,-5.936186790466309
1675156307129372400,12.771372314453124,0.7844662666320801,-0.2600187063217163,-4.137104034423828
1675156307149372400,12.791372314453126,-0.9777228236198425,-0.904948890209198,-6.482928276062012
1675156307169372400,12.811372314453125,-1.6415350437164307,-2.3656792640686035,-8.209099769592285
1675156307189372400,12.831372314453125,-3.0451858043670654,-4.430116653442383,-8.690443992614746
1675156307209372400,12.851372314453124,-1.5187556743621826,-4.496689796447754,-6.798677444458008
1675156307229372400,12.871372314453126,-0.17670416831970215,-1.8974735736846924,-3.2327451705932617
1675156307249373000,12.891373046875,-1.9365578889846802,0.908393144607544,-1.2638235092163086
1675156307269373700,12.911373779296875,-2.0691182613372803,1.8639293909072876,1.5788960456848145
1675156307289374500,12.93137451171875,-2.366612672805786,2.8491411209106445,5.7106194496154785
1675156307309375000,12.951375,-1.5696885585784912,1.6295841932296753,7.631059646606445
1675156307329375000,12.971375,0.3146764039993286,-1.0706629753112793,9.100105285644531
1675156307349375700,12.991375732421876,1.2585694789886475,-2.219273090362549,11.02280330657959
1675156307369375700,13.011375732421875,0.44012129306793213,-2.047386407852173,13.060338973999023
1675156307389376800,13.031376708984375,1.0613654851913452,-1.0793159008026123,13.592337608337402
1675156307409376800,13.051376708984375,7.824772834777832,-1.822753667831421,10.575918197631836
1675156307429376800,13.071376708984374,14.143939971923828,-5.486195087432861,1.1354570388793945
1675156307449376800,13.091376708984376,0.19519725441932678,-7.685649394989014,-13.858848571777344
1675156307469376800,13.111376708984375,1.9994750022888184,6.178171634674072,-14.81351089477539
1675156307489376800,13.131376708984375,1.7743194103240967,8.647476196289062,-9.047226905822754
1675156307509376800,13.151376708984374,-1.9729747772216797,1.805271863937378,-6.553394317626953
1675156307529376800,13.171376708984376,-1.8023364543914795,2.106508255004883,-10.135964393615723
1675156307549376800,13.191376708984375,-2.517906904220581,1.7685472965240479,-10.652710914611816
1675156307569376800,13.211376708984375,-2.5782721042633057,1.2014931440353394,-7.768990516662598
1675156307589376800,13.231376708984374,-0.5048603415489197,0.38143855333328247,-4.449466705322266
1675156307609376800,13.251376708984376,-1.8236078023910522,-1.4608421325683594,-1.1463956832885742
1675156307629376800,13.271376708984375,-1.558536171913147,-3.7968974113464355,3.5385055541992188
1675156307649376000,13.2913759765625,-0.7690557241439819,-4.330765247344971,5.839457988739014
1675156307669375200,13.311375244140624,-0.17179685831069946,-4.078072547912598,6.222873210906982
1675156307689374500,13.33137451171875,1.861738681793213,-3.359600782394409,8.550943374633789
1675156307709374500,13.35137451171875,1.5614969730377197,-3.550476551055908,11.597511291503906
1675156307729374500,13.37137451171875,1.0350658893585205,-2.5828518867492676,13.687954902648926
1675156307749374200,13.391374267578126,-1.355191707611084,-2.1698436737060547,14.226234436035156
1675156307769374200,13.411374267578125,3.2107653617858887,-2.318268299102783,12.042228698730469
1675156307789374200,13.431374267578125,19.353378295898438,-0.9748635292053223,6.290349006652832
1675156307809374200,13.451374267578124,5.4272379875183105,5.639625549316406,1.0138940811157227
1675156307829374200,13.471374267578126,4.57542085647583,4.05385684967041,-16.286205291748047
1675156307849374200,13.491374267578125,2.733443260192871,-8.75504207611084,-15.014634132385254
1675156307869374200,13.511374267578125,-1.7970538139343262,-3.4875330924987793,-9.451919555664062
1675156307889374200,13.531374267578125,0.38612696528434753,-2.0087432861328125,-8.36673355102539
1675156307909374200,13.551374267578124,-2.0601508617401123,-1.9622794389724731,-8.908424377441406
1675156307929374200,13.571374267578125,-3.179109811782837,-2.5234830379486084,-8.090729713439941
1675156307949374200,13.591374267578125,-1.7471227645874023,-1.6684842109680176,-5.025035858154297
1675156307969374200,13.611374267578125,-1.0525132417678833,0.5108920335769653,-2.2909116744995117
1675156307989373200,13.631373291015626,-2.86361026763916,1.3885418176651,0.4163246154785156
1675156308009373200,13.651373291015625,-3.673408031463623,1.6725237369537354,3.2528586387634277
1675156308029373200,13.671373291015625,-2.9306488037109375,1.3579820394515991,6.993599891662598
1675156308049373200,13.691373291015625,-0.48084378242492676,0.44510459899902344,9.562518119812012
1675156308069373200,13.711373291015626,1.9341884851455688,-0.01434999704360962,10.40708065032959
1675156308089373200,13.731373291015625,2.666152238845825,-0.9940826296806335,12.026413917541504
1675156308109373200,13.751373291015625,1.6164549589157104,-1.1159113645553589,14.056602478027344
1675156308129373200,13.771373291015625,7.624696254730225,-1.7169735431671143,12.207342147827148
1675156308149373200,13.791373291015624,11.170076370239258,-4.807400703430176,6.913137912750244
1675156308169373200,13.811373291015625,5.473735809326172,-6.852436065673828,1.7164840698242188
1675156308189373200,13.831373291015625,2.2407500743865967,-3.6540770530700684,-11.77863883972168
1675156308209373200,13.851373291015625,3.2870688438415527,12.164295196533203,-20.54481315612793
1675156308229373200,13.871373291015624,0.5182716250419617,6.271833419799805,-12.764941215515137
1675156308249373700,13.891373779296876,-3.501932144165039,2.7186079025268555,-8.491738319396973
1675156308269374500,13.91137451171875,-1.7432876825332642,3.511605739593506,-11.8036470413208
1675156308289375200,13.931375244140625,-3.0347189903259277,1.7593562602996826,-8.759476661682129
1675156308309375200,13.951375244140625,-2.448734760284424,0.02258121967315674,-4.59733772277832
1675156308329375200,13.971375244140624,-1.9029958248138428,-2.0202481746673584,-4.226016044616699
1675156308349375700,13.991375732421876,-2.6679937839508057,-3.586334705352783,-1.0164899826049805
1675156308369375700,14.011375732421875,-0.9915584325790405,-3.2792539596557617,5.169310092926025
1675156308389375700,14.031375732421875,-1.402017593383789,-3.7855050563812256,8.316997528076172
1675156308409375700,14.051375732421874,2.1577985286712646,-3.3217451572418213,9.621480941772461
1675156308429375700,14.071375732421876,3.1758360862731934,-3.8291985988616943,10.237613677978516
1675156308449375700,14.091375732421875,1.8569731712341309,-4.026194095611572,13.451696395874023
1675156308469375700,14.111375732421875,-0.04603344202041626,-3.7023377418518066,15.134098052978516
1675156308489375700,14.131375732421875,-1.7439777851104736,-3.314732789993286,14.572585105895996
1675156308509375700,14.151375732421876,12.156533241271973,-2.5551962852478027,9.050774574279785
1675156308529375700,14.171375732421875,5.7650933265686035,4.010344505310059,4.141295909881592
1675156308549375700,14.191375732421875,1.9839128255844116,14.232002258300781,-14.7376127243042
1675156308569375700,14.211375732421875,7.248850345611572,-3.8787121772766113,-23.518646240234375
1675156308589375700,14.231375732421874,-2.2615227699279785,-9.214035034179688,-13.617135047912598
1675156308609375700,14.251375732421875,-1.3840599060058594,-6.2277116775512695,-7.04731559753418
1675156308629375700,14.271375732421875,-0.7557297945022583,-1.6738190650939941,-9.440629959106445
1675156308649375000,14.291375,-2.4779839515686035,-0.5332695841789246,-9.484807968139648
1675156308669374500,14.31137451171875,-3.0795583724975586,-0.6522054672241211,-5.51881217956543
1675156308689373400,14.33137353515625,-0.9914418458938599,0.022953391075134277,-2.5034494400024414
1675156308709373000,14.351373046875,-1.3310726881027222,1.5889383554458618,-0.25652027130126953
1675156308729373000,14.371373046875,-2.424283742904663,2.060363292694092,0.388916015625
1675156308749372200,14.3913720703125,-4.20997428894043,1.6009188890457153,4.517141819000244
1675156308769371600,14.41137158203125,-0.9085390567779541,-0.3862237334251404,8.793745994567871
1675156308789371000,14.431370849609374,1.8854483366012573,0.21894264221191406,10.904019355773926
1675156308809371000,14.451370849609376,2.463122844696045,0.4298732280731201,11.90800666809082
1675156308829371000,14.471370849609375,1.7127201557159424,-0.2837049961090088,14.627817153930664
1675156308849371000,14.491370849609375,0.8339806199073792,-0.007649362087249756,15.952234268188477
1675156308869371000,14.511370849609374,9.017990112304688,-1.4485794305801392,11.86809253692627
1675156308889371000,14.531370849609376,14.915312767028809,-3.7928762435913086,5.127148151397705
1675156308909371000,14.551370849609375,0.7649000883102417,-9.341621398925781,-6.826070785522461
1675156308929371000,14.571370849609375,-0.9711623787879944,1.6269195079803467,-21.423961639404297
1675156308949371000,14.591370849609374,0.9803133010864258,15.83594036102295,-24.927608489990234
1675156308969371000,14.611370849609376,-0.8851964473724365,2.770796298980713,-6.706277847290039
1675156308989371000,14.631370849609375,-3.7409651279449463,2.1676156520843506,-7.83962345123291
1675156309009371000,14.651370849609375,-1.8019819259643555,2.5036540031433105,-11.245610237121582
1675156309029371000,14.671370849609374,-3.316948413848877,0.8849506378173828,-7.027972221374512
1675156309049371000,14.691370849609376,-2.105910062789917,-1.1285256147384644,-3.7981605529785156
1675156309069371000,14.711370849609375,-2.781104326248169,-2.789048194885254,-2.780215263366699
1675156309089371000,14.731370849609375,-2.599551200866699,-1.0140148401260376,0.9917898178100586
1675156309109371000,14.751370849609375,-0.49123454093933105,-2.490034580230713,6.455593109130859
1675156309129371000,14.771370849609376,-0.05224663019180298,-3.3562917709350586,7.97441291809082
1675156309149371000,14.791370849609375,3.6496407985687256,-5.351139068603516,10.433841705322266
1675156309169371000,14.811370849609375,3.4321579933166504,-4.8823347091674805,12.500750541687012
1675156309189371000,14.831370849609375,2.2519185543060303,-3.581617593765259,14.481788635253906
1675156309209371000,14.851370849609374,0.5643377900123596,-4.101417541503906,14.415935516357422
1675156309229371000,14.871370849609375,11.804747581481934,-4.133888244628906,8.84746265411377
1675156309249371600,14.89137158203125,1.953019142150879,2.7616705894470215,5.457197189331055
1675156309269372200,14.9113720703125,-1.2800649404525757,14.367591857910156,-9.890010833740234
1675156309289373200,14.931373291015625,8.053366661071777,0.5251525640487671,-25.612258911132812
1675156309309373700,14.951373779296874,4.51137113571167,-6.8411126136779785,-21.6534423828125
1675156309329373700,14.971373779296876,-2.1893322467803955,-4.102385997772217,-5.360386848449707
1675156309349374500,14.99137451171875,0.037120357155799866,-0.8411229252815247,-8.283170700073242
1675156309369375000,15.011375,-2.3366947174072266,-1.158170461654663,-8.729466438293457
1675156309389375700,15.031375732421875,-2.881829261779785,-2.033090114593506,-6.45944881439209
1675156309409375700,15.051375732421874,-2.3537955284118652,-2.280320644378662,-4.915116310119629
1675156309429375700,15.071375732421876,-1.7347394227981567,-1.5792709589004517,-2.945755958557129
1675156309449375700,15.091375732421875,-3.0033302307128906,1.415546178817749,0.9774808883666992
1675156309469375700,15.111375732421875,-3.781278610229492,2.5459437370300293,4.065647125244141
1675156309489375700,15.131375732421875,-1.516401767730713,0.7376776933670044,8.217679977416992
1675156309509375700,15.151375732421876,2.9315638542175293,0.19909131526947021,10.619060516357422
1675156309529375700,15.171375732421875,4.579202651977539,-0.4747086763381958,11.677844047546387
1675156309549375700,15.191375732421875,2.679304599761963,-1.3794883489608765,13.966257095336914
1675156309569375700,15.211375732421875,1.5100176334381104,-1.090851068496704,15.39417839050293
1675156309589375700,15.231375732421874,7.8007025718688965,-2.4043989181518555,11.916308403015137
1675156309609375700,15.251375732421875,13.439489364624023,-6.46585750579834,4.82125186920166
1675156309629375700,15.271375732421875,4.982583045959473,-7.638603210449219,-1.6526966094970703
1675156309649375000,15.291375,-0.6719272136688232,1.0187509059906006,-19.064239501953125
1675156309669375000,15.311375,0.7158493399620056,18.410690307617188,-26.469223022460938
1675156309689374200,15.331374267578125,0.4095973074436188,9.606010437011719,-18.415130615234375
1675156309709373400,15.35137353515625,-2.929570436477661,0.7502278089523315,-8.045671463012695
1675156309729373400,15.37137353515625,-2.316211223602295,2.247091770172119,-9.560654640197754
1675156309749372700,15.39137255859375,-2.2308902740478516,1.8122087717056274,-8.487384796142578
1675156309769372700,15.41137255859375,-2.3792612552642822,-1.0267103910446167,-3.827404022216797
1675156309789372700,15.43137255859375,-3.2099220752716064,-2.630601167678833,-1.9268503189086914
1675156309809372700,15.45137255859375,-2.656848669052124,-1.4031846523284912,3.452694892883301
1675156309829372700,15.47137255859375,-0.757509708404541,-2.1075594425201416,6.3306403160095215
1675156309849372700,15.49137255859375,0.3864201307296753,-3.833726644515991,9.41305160522461
1675156309869372700,15.51137255859375,3.6512012481689453,-6.386975288391113,10.962942123413086
1675156309889372700,15.53137255859375,3.194401741027832,-5.057009220123291,12.306201934814453
1675156309909372700,15.55137255859375,1.0769466161727905,-4.343167304992676,14.44502067565918
1675156309929372700,15.57137255859375,-1.8055647611618042,-4.645157814025879,13.94703197479248
1675156309949372700,15.59137255859375,6.883561134338379,-4.636316776275635,9.719225883483887
1675156309969372700,15.61137255859375,16.32316780090332,-2.1081619262695312,4.865004539489746
1675156309989372700,15.63137255859375,-0.8433230519294739,14.551090240478516,-8.988718032836914
1675156310009372700,15.65137255859375,3.363264322280884,8.880825996398926,-27.789588928222656
1675156310029372700,15.67137255859375,-1.1828291416168213,-10.6876220703125,-15.787969589233398
1675156310049372700,15.69137255859375,-2.271580219268799,-4.9728569984436035,-6.583447456359863
1675156310069372700,15.71137255859375,0.7206652760505676,-3.120584487915039,-7.777361869812012
1675156310089372700,15.73137255859375,-3.324005126953125,-0.8847464323043823,-9.194802284240723
1675156310109372700,15.75137255859375,-3.6338863372802734,-0.9718900918960571,-5.630185127258301
1675156310129372700,15.77137255859375,-1.7764146327972412,-1.771783471107483,-2.231508255004883
1675156310149372700,15.79137255859375,-1.8901023864746094,-0.84995037317276,-0.09508609771728516
1675156310169372700,15.81137255859375,-4.009040355682373,1.2236002683639526,1.520721435546875
1675156310189372700,15.83137255859375,-3.8614134788513184,2.0720467567443848,5.659889221191406
1675156310209372700,15.85137255859375,0.07015657424926758,-0.2604328393936157,9.453672409057617
1675156310229372700,15.87137255859375,3.3458409309387207,-1.0814807415008545,10.538106918334961
1675156310249373400,15.89137353515625,4.3505659103393555,-1.7508563995361328,13.102176666259766
1675156310269373400,15.91137353515625,1.8388006687164307,-0.7959179878234863,15.461807250976562
1675156310289374500,15.93137451171875,0.9763216376304626,0.018433451652526855,15.782883644104004
1675156310309375000,15.951375,10.59245777130127,-3.365830183029175,9.628318786621094
1675156310329375000,15.971375,7.206295967102051,-6.310655117034912,-2.367648124694824
1675156310349375700,15.991375732421876,3.955794095993042,-10.498274803161621,-9.537796974182129
1675156310369375700,16.011375732421875,1.5622259378433228,14.877509117126465,-26.287273406982422
1675156310389375700,16.031375732421875,0.7611515522003174,10.668210983276367,-17.96660614013672
1675156310409375700,16.051375732421874,-4.182583808898926,-0.0427623987197876,-3.8817367553710938
1675156310429375700,16.071375732421874,-3.4140005111694336,-0.8393234610557556,-5.254478454589844
1675156310449375700,16.091375732421874,-1.9335031509399414,1.9016022682189941,-9.240102767944336
1675156310469375700,16.111375732421877,-2.190664052963257,0.9138245582580566,-5.087108612060547
1675156310489375700,16.131375732421876,-3.5366766452789307,-0.7860217690467834,-3.3846254348754883
1675156310509375700,16.151375732421876,-3.8898167610168457,0.14241266250610352,0.4535198211669922
1675156310529375700,16.171375732421875,-1.8225340843200684,-2.1338539123535156,6.140271186828613
1675156310549375700,16.191375732421875,-0.4899310767650604,-3.10833740234375,8.73062515258789
1675156310569375700,16.211375732421875,2.941018581390381,-6.049156188964844,9.608430862426758
1675156310589375700,16.231375732421874,4.325307369232178,-6.27903413772583,11.278607368469238
1675156310609375700,16.251375732421874,3.551084518432617,-4.174041271209717,13.45077133178711
1675156310629375700,16.271375732421873,0.5530208945274353,-4.075505256652832,14.761117935180664
1675156310649375200,16.291375244140625,8.288629531860352,-5.08698034286499,11.058940887451172
1675156310669375200,16.311375244140624,9.44835090637207,-0.197723388671875,7.420159339904785
1675156310689374200,16.331374267578123,-2.676389694213867,8.977563858032227,1.7494091987609863
1675156310709374200,16.351374267578127,9.142714500427246,6.532844543457031,-24.536256790161133
1675156310729374200,16.371374267578126,5.4893951416015625,-5.386591911315918,-29.628223419189453
1675156310749375500,16.39137548828125,-2.4192588329315186,-7.931577205657959,-8.957797050476074
1675156310769375500,16.41137548828125,-0.7639437913894653,-5.8343071937561035,-5.577545166015625
1675156310789375500,16.43137548828125,-1.9929882287979126,-1.4533170461654663,-9.058295249938965
1675156310809375500,16.45137548828125,-3.6181631088256836,-0.19064772129058838,-6.64879035949707
1675156310829375500,16.47137548828125,-2.6153650283813477,0.3705860376358032,-3.6342592239379883
1675156310849375500,16.49137548828125,-1.7647428512573242,0.9474713802337646,-0.6147956848144531
1675156310869375500,16.51137548828125,-2.8212199211120605,2.0618443489074707,1.6454768180847168
1675156310889375500,16.53137548828125,-4.405938625335693,1.7528352737426758,4.0821404457092285
1675156310909375500,16.55137548828125,-2.342130184173584,-0.217643141746521,8.239095687866211
1675156310929375500,16.57137548828125,1.3882640600204468,-0.03286159038543701,10.58773422241211
1675156310949375500,16.59137548828125,4.833452224731445,0.03592562675476074,12.414130210876465
1675156310969375500,16.61137548828125,2.031400680541992,0.03916442394256592,14.032726287841797
1675156310989375500,16.63137548828125,-0.8725731372833252,0.8630690574645996,15.079179763793945
1675156311009375500,16.65137548828125,8.399567604064941,-0.3128376007080078,12.014567375183105
1675156311029375500,16.67137548828125,19.01122283935547,-3.3180809020996094,3.6757493019104004
1675156311049375500,16.69137548828125,1.2895652055740356,-11.169987678527832,-9.722511291503906
1675156311069375500,16.71137548828125,-0.9938842058181763,-2.08005952835083,-19.590608596801758
1675156311089375500,16.73137548828125,4.106156349182129,15.391729354858398,-27.845062255859375
1675156311109375500,16.75137548828125,-2.789288282394409,2.8075368404388428,-4.789337158203125
1675156311129375500,16.77137548828125,-2.360478401184082,-0.3596072196960449,-4.968095779418945
1675156311149375500,16.79137548828125,-0.9476140141487122,0.035475850105285645,-10.851858139038086
1675156311169375500,16.81137548828125,-2.759026527404785,-0.06489980220794678,-7.246102333068848
1675156311189375500,16.83137548828125,-1.9536001682281494,-1.3469083309173584,-3.7299299240112305
1675156311209375200,16.851375244140623,-4.827784538269043,-1.3662357330322266,-1.611323356628418
1675156311229375200,16.871375244140626,-3.125216484069824,-0.397533655166626,3.7038798332214355
1675156311249376000,16.8913759765625,-1.829448938369751,-2.3212404251098633,6.758803844451904
1675156311269376000,16.9113759765625,0.8590115904808044,-4.6053009033203125,9.816650390625
1675156311289376800,16.931376708984374,4.190404891967773,-7.534521102905273,10.803156852722168
1675156311309377000,16.951376953125,4.468935489654541,-5.051488876342773,11.445951461791992
1675156311329377000,16.971376953125,1.6848649978637695,-3.4654722213745117,13.794937133789062
1675156311349375500,16.99137548828125,-0.5052332878112793,-4.002460479736328,13.589974403381348
1675156311369375700,17.011375732421875,12.882879257202148,-6.1514482498168945,8.097694396972656
1675156311389375700,17.031375732421875,7.085835933685303,2.026561975479126,6.476497650146484
1675156311409375700,17.051375732421874,-0.80113285779953,15.729815483093262,-8.283801078796387
1675156311429375200,17.071375244140626,4.193140506744385,13.64477252960205,-22.347740173339844
1675156311449375200,17.091375244140625,-1.9952852725982666,-13.41855239868164,-17.569034576416016
1675156311469375200,17.111375244140625,-0.8837737441062927,-7.132422924041748,-4.901979446411133
1675156311489375200,17.131375244140624,-0.09628832340240479,-5.799327850341797,-3.501339912414551
1675156311509375200,17.151375244140624,-2.6710968017578125,0.18902289867401123,-8.999842643737793
1675156311529375200,17.171375244140624,-3.3306665420532227,0.4754805564880371,-7.103049278259277
1675156311549375200,17.191375244140627,-2.318887233734131,0.7109565734863281,-1.2997798919677734
1675156311569375200,17.211375244140626,-2.7856087684631348,2.0778579711914062,0.4606332778930664
1675156311589375200,17.231375244140626,-4.387446403503418,2.4734950065612793,1.7505245208740234
1675156311609375200,17.251375244140625,-3.560616970062256,0.8500151634216309,5.3418402671813965
1675156311629375200,17.271375244140625,-0.33530229330062866,-0.03805184364318848,8.609602928161621
1675156311649374500,17.29137451171875,3.3834095001220703,1.1193246841430664,10.230236053466797
1675156311669374500,17.31137451171875,5.605958461761475,0.5178337693214417,12.600540161132812
1675156311689374000,17.3313740234375,2.0783393383026123,0.6466188430786133,14.539945602416992
1675156311709373200,17.351373291015626,0.06580314040184021,0.7626621723175049,15.288694381713867
1675156311729373200,17.371373291015626,7.124695777893066,-1.6613667011260986,11.753908157348633
1675156311749372700,17.39137255859375,15.15349292755127,-3.539489507675171,4.976540565490723
1675156311769372700,17.41137255859375,1.9636480808258057,-8.54887580871582,-7.598608016967773
1675156311789372700,17.43137255859375,-1.8438878059387207,-4.435427188873291,-19.36083221435547
1675156311809372700,17.45137255859375,-0.6880892515182495,13.505720138549805,-32.49677276611328
1675156311829372700,17.47137255859375,-2.658754587173462,9.329357147216797,-16.059463500976562
1675156311849372700,17.49137255859375,-1.5319173336029053,1.1581991910934448,-6.338809967041016
1675156311869372700,17.51137255859375,-2.88793683052063,1.9363994598388672,-10.656683921813965
1675156311889372700,17.53137255859375,-3.8054795265197754,1.3320189714431763,-6.5252275466918945
1675156311909372700,17.55137255859375,-2.4424667358398438,-1.2462222576141357,-2.8746185302734375
1675156311929372700,17.57137255859375,-4.0779523849487305,-3.334202766418457,-0.3522148132324219
1675156311949372700,17.59137255859375,-2.8841800689697266,-1.8274507522583008,2.041595935821533
1675156311969372700,17.61137255859375,1.7565444707870483,-3.6684021949768066,7.142778396606445
1675156311989372700,17.63137255859375,2.7737090587615967,-5.17658805847168,8.967297554016113
1675156312009372700,17.65137255859375,3.5437657833099365,-5.274928092956543,9.768167495727539
1675156312029373000,17.671373046875,2.754652976989746,-3.9785280227661133,14.02816390991211
1675156312049373000,17.691373046875,1.1163619756698608,-4.1846818923950195,15.862321853637695
1675156312069373000,17.711373046875,2.927063465118408,-5.389717102050781,13.563217163085938
1675156312089373000,17.731373046875,14.95011043548584,-6.115583896636963,7.4623613357543945
1675156312109373200,17.751373291015625,-2.931426525115967,7.246310234069824,3.0977277755737305
1675156312129373000,17.771373046875,5.279442310333252,13.872148513793945,-18.309120178222656
1675156312149373200,17.791373291015624,3.333085298538208,-4.16450309753418,-28.541881561279297
1675156312169373200,17.811373291015624,-2.767454147338867,-9.151185035705566,-11.512893676757812
1675156312189373200,17.831373291015623,-1.8804216384887695,-3.2133429050445557,-5.608647346496582
1675156312209373200,17.851373291015626,-1.5106085538864136,-1.528843879699707,-6.267655372619629
1675156312229373000,17.871373046875,-2.958768606185913,-0.48586398363113403,-7.373268127441406
1675156312249373700,17.891373779296874,-3.3138017654418945,-1.4778871536254883,-5.993100166320801
1675156312269373700,17.911373779296873,-2.399768829345703,-1.058651328086853,-2.9282350540161133
1675156312289374500,17.93137451171875,-2.955261468887329,1.6330950260162354,1.0576744079589844
1675156312309375000,17.951375,-3.7229533195495605,2.3311901092529297,2.933371067047119
1675156312329375000,17.971375,-3.640150547027588,2.721592903137207,4.160170078277588
1675156312349375700,17.991375732421876,-1.5894008874893188,0.8356786966323853,7.471719741821289
1675156312369375700,18.011375732421875,2.8456578254699707,-1.005317211151123,10.713974952697754
1675156312389375700,18.031375732421875,4.611583709716797,-1.683558464050293,11.811457633972168
1675156312409375700,18.051375732421874,2.9742870330810547,-2.563805103302002,13.89695930480957
1675156312429375700,18.071375732421874,6.6113762855529785,-3.0321435928344727,12.476167678833008
1675156312449375700,18.091375732421874,9.769883155822754,-4.445623397827148,7.588146209716797
1675156312469375700,18.111375732421877,-0.3444797992706299,-5.965058326721191,0.4011058807373047
1675156312489375700,18.131375732421876,4.930197715759277,-4.582667827606201,-8.578019142150879
1675156312509375700,18.151375732421876,4.681750297546387,15.86087703704834,-32.859764099121094
1675156312529375700,18.171375732421875,-0.25835981965065,6.106056213378906,-12.387085914611816
1675156312549375700,18.191375732421875,-3.156590700149536,2.163665771484375,-3.7914772033691406
1675156312569375700,18.211375732421875,-1.9865012168884277,3.0150933265686035,-10.978621482849121
1675156312589375500,18.23137548828125,-2.8403077125549316,2.807215690612793,-10.744650840759277
1675156312609375500,18.25137548828125,-3.150644302368164,-0.32749736309051514,-4.194428443908691
1675156312629375500,18.27137548828125,-2.487362861633301,-3.1953792572021484,-2.42952823638916
1675156312649375500,18.29137548828125,-4.194679260253906,-2.4145560264587402,0.2049541473388672
1675156312669374700,18.311374755859376,-0.8429828882217407,-3.02889084815979,6.30626916885376
1675156312689374000,18.3313740234375,-1.4277012348175049,-3.682332992553711,9.241456031799316
1675156312709373200,18.351373291015626,2.2167468070983887,-5.568501949310303,11.708473205566406
1675156312729373200,18.371373291015626,2.859285354614258,-6.339852333068848,11.85952091217041
1675156312749372400,18.391372314453125,2.131209373474121,-5.168878078460693,12.833786010742188
1675156312769372400,18.411372314453125,-1.7210499048233032,-4.323884010314941,14.650517463684082
1675156312789372400,18.431372314453125,-2.0686943531036377,-4.559924125671387,13.716666221618652
1675156312809372400,18.451372314453124,19.521902084350586,-6.5259504318237305,6.499904632568359
1675156312829372400,18.471372314453124,13.172929763793945,-1.2093150615692139,5.756829261779785
1675156312849372400,18.491372314453123,4.123020172119141,19.74241828918457,-24.330665588378906
1675156312869371600,18.51137158203125,6.345866680145264,10.00810718536377,-29.712451934814453
1675156312889371600,18.53137158203125,-0.288921594619751,-12.45004653930664,-12.607032775878906
1675156312909371600,18.55137158203125,0.4898024797439575,-4.870380401611328,-6.317198753356934
1675156312929371600,18.57137158203125,-1.0008102655410767,-2.6614580154418945,-10.747145652770996
1675156312949371600,18.59137158203125,-3.9361462593078613,-2.138009548187256,-7.95574951171875
1675156312969371600,18.61137158203125,-4.178444862365723,-1.8265061378479004,-5.935394287109375
1675156312989371600,18.63137158203125,-2.860574722290039,-1.371075987815857,-1.8888969421386719
1675156313009371600,18.65137158203125,-2.7204835414886475,-0.03873109817504883,-0.2406330108642578
1675156313029371600,18.67137158203125,-4.0937581062316895,1.3534249067306519,1.8983955383300781
1675156313049371600,18.69137158203125,-3.504365921020508,0.42124831676483154,5.741510391235352
1675156313069371600,18.71137158203125,-1.4316658973693848,-0.8314856290817261,9.414419174194336
1675156313089371600,18.73137158203125,1.4864392280578613,-0.08993566036224365,11.353114128112793
1675156313109371600,18.75137158203125,4.364799976348877,-0.3880271911621094,13.262179374694824
1675156313129371600,18.77137158203125,1.9026286602020264,-0.7140332460403442,14.28365421295166
1675156313149371600,18.79137158203125,1.9776866436004639,-0.15468966960906982,13.905139923095703
1675156313169371600,18.81137158203125,10.965551376342773,-2.4351911544799805,9.507538795471191
1675156313189372000,18.831371826171875,5.984875679016113,-5.486171722412109,1.1064825057983398
1675156313209372000,18.851371826171874,4.336579322814941,-9.312241554260254,-8.800037384033203
1675156313229372000,18.871371826171874,3.6561927795410156,12.97220230102539,-31.246902465820312
1675156313249372000,18.891371826171873,-1.3868249654769897,8.264482498168945,-16.09799575805664
1675156313269372700,18.91137255859375,-3.1477181911468506,0.6801950931549072,-2.6055355072021484
1675156313289373400,18.93137353515625,-1.6692519187927246,1.4583643674850464,-9.822568893432617
1675156313309374200,18.951374267578124,-2.687162399291992,2.5669288635253906,-9.153960227966309
1675156313329374200,18.971374267578124,-2.946580171585083,0.8525176048278809,-4.855779647827148
1675156313349374700,18.991374755859376,-2.2372875213623047,-1.9925594329833984,-3.1589155197143555
1675156313369374700,19.011374755859375,-3.532942056655884,-1.087372899055481,0.42493343353271484
1675156313389374700,19.031374755859375,-0.6009036898612976,-3.043303966522217,6.672222137451172
1675156313409374700,19.051374755859374,-0.5678337812423706,-3.5825581550598145,8.858015060424805
1675156313429374700,19.071374755859374,2.9586586952209473,-4.839631080627441,9.835350036621094
1675156313449374700,19.091374755859373,2.684690475463867,-4.767224311828613,11.598250389099121
1675156313469375700,19.111375732421877,2.0883102416992188,-3.2808525562286377,13.830570220947266
1675156313489375700,19.131375732421876,-2.206669569015503,-3.3380908966064453,15.406452178955078
1675156313509375700,19.151375732421876,0.08210486173629761,-4.526161193847656,12.562765121459961
1675156313529375700,19.171375732421875,22.678550720214844,-5.856899261474609,6.298368453979492
1675156313549375700,19.191375732421875,0.6872153878211975,9.818950653076172,0.5402002334594727
1675156313569375700,19.211375732421875,3.336697578430176,15.477088928222656,-27.42423439025879
1675156313589375700,19.231375732421874,4.36937952041626,-14.76063060760498,-22.45860481262207
1675156313609375700,19.251375732421874,-2.7707037925720215,-7.533010959625244,-7.500779151916504
1675156313629375700,19.271375732421873,-0.08489358425140381,-4.741948127746582,-4.9424943923950195
1675156313649375200,19.291375244140625,0.5780885219573975,-3.877840995788574,-7.103625297546387
1675156313669374500,19.31137451171875,-3.292811155319214,-0.433000385761261,-7.573799133300781
1675156313689373700,19.331373779296875,-3.8654210567474365,0.2151678204536438,-3.603269577026367
1675156313709373700,19.351373779296875,-3.928187608718872,1.432627558708191,-0.6414356231689453
1675156313729373700,19.371373779296874,-4.399018287658691,1.6176471710205078,0.3102388381958008
1675156313749373400,19.39137353515625,-4.664083003997803,1.3938257694244385,4.358398914337158
1675156313769373000,19.411373046875,-2.5892081260681152,0.647620439529419,7.493680953979492
1675156313789373000,19.431373046875,-1.4319688081741333,0.643746018409729,9.001846313476562
1675156313809373000,19.451373046875,4.102750778198242,0.10759472846984863,12.085114479064941
1675156313829373000,19.471373046875,3.2493529319763184,-0.5064849853515625,13.596323013305664
1675156313849372400,19.491372314453123,-0.5366747379302979,-0.2923223376274109,14.821240425109863
1675156313869372400,19.511372314453126,0.2587614357471466,-0.5082485675811768,13.709803581237793
1675156313889372400,19.531372314453126,12.528230667114258,-2.3130879402160645,8.226546287536621
1675156313909372400,19.551372314453126,18.856578826904297,-6.038370132446289,-4.880987167358398
1675156313929372400,19.571372314453125,2.850048780441284,-13.640517234802246,-11.593194007873535
1675156313949372400,19.591372314453125,-1.625603437423706,12.942967414855957,-30.559850692749023
1675156313969372400,19.611372314453124,-1.8043956756591797,12.441619873046875,-13.03686237335205
1675156313989372400,19.631372314453124,-3.7557199001312256,2.5101587772369385,-3.0903778076171875
1675156314009372400,19.651372314453123,-2.034135103225708,2.2052981853485107,-8.298537254333496
1675156314029372400,19.671372314453127,-3.156614065170288,1.8988890647888184,-8.056692123413086
1675156314049372400,19.691372314453126,-3.410078525543213,0.04001462459564209,-4.820793151855469
1675156314069372200,19.7113720703125,-2.737514019012451,-2.1440467834472656,-2.2115488052368164
1675156314089372200,19.7313720703125,-3.0455894470214844,-0.4293079674243927,2.197782039642334
1675156314109372200,19.7513720703125,-0.6346546411514282,-2.3743388652801514,6.850959777832031
1675156314129372200,19.7713720703125,0.5592968463897705,-2.97493052482605,9.05988883972168
1675156314149372200,19.7913720703125,1.155390977859497,-4.233996391296387,10.734176635742188
1675156314169372200,19.8113720703125,2.3196401596069336,-5.011122703552246,12.58781623840332
1675156314189372200,19.8313720703125,1.9426913261413574,-3.0582242012023926,13.445011138916016
1675156314209372200,19.8513720703125,2.0641345977783203,-3.496389865875244,13.496337890625
1675156314229372200,19.8713720703125,12.86359977722168,-4.027370929718018,9.228876113891602
1675156314249372700,19.89137255859375,-1.1223170757293701,3.388493537902832,6.180178165435791
1675156314269373400,19.91137353515625,5.8464508056640625,10.050578117370605,-11.218755722045898
1675156314289207800,19.931207763671875,3.965930223464966,1.3874731063842773,-31.97469711303711
1675156314309208000,19.9512080078125,-1.0825438499450684,-8.206193923950195,-12.988595008850098
1675156314329208000,19.9712080078125,-1.0991284847259521,-3.447645902633667,-4.0199480056762695
1675156314349208000,19.9912080078125,-0.48886603116989136,-2.5225958824157715,-7.089603424072266
1675156314369208600,20.01120849609375,-1.9243600368499756,-1.0563592910766602,-9.134119033813477
1675156314389208600,20.03120849609375,-2.8079466819763184,-1.0271426439285278,-7.341386795043945
1675156314409208600,20.05120849609375,-3.3534605503082275,-1.2502415180206299,-4.042627334594727
1675156314429208600,20.07120849609375,-3.2638673782348633,0.16760432720184326,0.9282941818237305
1675156314449209300,20.091209228515623,-4.153600215911865,1.8264479637145996,2.898843288421631
1675156314469209300,20.111209228515627,-3.8516335487365723,2.0452592372894287,5.963451385498047
1675156314489209300,20.131209228515626,-1.1676170825958252,0.49720191955566406,9.030043601989746
1675156314509209300,20.151209228515626,1.8792812824249268,0.346172034740448,10.562196731567383
1675156314529209300,20.171209228515625,3.9934520721435547,-0.8420522809028625,12.489599227905273
1675156314549209300,20.191209228515625,2.0513455867767334,-1.2277779579162598,13.717884063720703
1675156314569209300,20.211209228515624,0.9476122856140137,-0.7941384315490723,13.835886001586914
1675156314589209300,20.231209228515624,10.730022430419922,-2.5702595710754395,9.624608993530273
1675156314609209300,20.251209228515624,15.12036418914795,-6.21574592590332,0.30990123748779297
1675156314629209300,20.271209228515627,3.1619911193847656,-9.128076553344727,-6.519648551940918
1675156314649209300,20.291209228515626,0.9336475133895874,5.849922180175781,-20.14340591430664
1675156314669208800,20.311208740234374,-2.127554416656494,18.50629234313965,-26.221647262573242
1675156314689207800,20.331207763671873,-3.761725902557373,3.6517982482910156,-4.6618804931640625
1675156314709207800,20.351207763671876,-2.3424248695373535,2.408646583557129,-7.261066436767578
1675156314729207800,20.371207763671876,-1.7977842092514038,3.4524476528167725,-10.376225471496582
1675156314749207300,20.391207275390624,-3.6309752464294434,0.9755494594573975,-5.293339729309082
1675156314769207300,20.411207275390623,-2.328136682510376,-2.184605836868286,-2.9668235778808594
1675156314789207300,20.431207275390626,-4.359103679656982,-2.443660259246826,-0.45882129669189453
1675156314809207300,20.451207275390626,-2.0699052810668945,-1.0356316566467285,3.347076416015625
1675156314829207300,20.471207275390626,-0.6047878861427307,-2.874955654144287,7.861944198608398
1675156314849207300,20.491207275390625,1.5779216289520264,-3.5653157234191895,10.078523635864258
1675156314869207300,20.511207275390625,2.2188897132873535,-5.290738582611084,11.808470726013184
1675156314889207300,20.531207275390624,2.7097229957580566,-3.9732487201690674,13.099289894104004
1675156314909207300,20.551207275390624,-0.9924404621124268,-2.686805486679077,14.518930435180664
1675156314929207300,20.571207275390623,1.3877110481262207,-3.3065695762634277,12.948391914367676
1675156314949207300,20.591207275390627,16.527414321899414,-4.346273422241211,7.775914669036865
1675156314969207300,20.611207275390626,-0.9594114422798157,6.201704025268555,4.833977699279785
1675156314989207300,20.631207275390626,7.500559329986572,13.479430198669434,-18.887325286865234
1675156315009207300,20.651207275390625,3.754432201385498,-4.561173915863037,-28.246482849121094
1675156315029207300,20.671207275390625,-2.5079567432403564,-6.862985134124756,-10.793907165527344
1675156315049207300,20.691207275390624,-1.272708773612976,-4.974968910217285,-4.160374641418457
1675156315069207300,20.711207275390624,-0.2917103171348572,-2.680863380432129,-8.031816482543945
1675156315089207300,20.731207275390624,-2.665228843688965,-1.5376014709472656,-8.507568359375
1675156315109207300,20.751207275390627,-3.535182476043701,-1.672080397605896,-4.917123794555664
1675156315129207300,20.771207275390626,-3.1211366653442383,-0.4904787540435791,-1.704930305480957
1675156315149207300,20.791207275390626,-3.7567601203918457,1.6761785745620728,0.6048946380615234
1675156315169207300,20.811207275390625,-4.251842021942139,2.954613208770752,3.4734630584716797
1675156315189207300,20.831207275390625,-2.927415370941162,1.12998628616333,7.161943435668945
1675156315209207300,20.851207275390625,-0.04878890514373779,0.9163405895233154,9.671806335449219
1675156315229207300,20.871207275390624,3.57509446144104,0.176652193069458,11.776147842407227
1675156315249207300,20.891207275390624,5.004353046417236,-0.4254717528820038,12.844990730285645
1675156315269208000,20.9112080078125,2.669344902038574,-0.9725053310394287,14.479671478271484
1675156315289208800,20.931208740234375,7.002684116363525,-1.381413459777832,12.86936092376709
1675156315309209000,20.951208984375,13.513094902038574,-2.32011079788208,6.9055938720703125
1675156315329209000,20.971208984375,7.786086559295654,-4.102717399597168,2.593081474304199
1675156315349209300,20.991209228515626,2.230271339416504,-4.843536376953125,-12.863319396972656
1675156315369209300,21.011209228515625,1.712470293045044,6.8733134269714355,-26.506879806518555
1675156315389209300,21.031209228515625,-2.748840808868408,6.214755535125732,-8.877007484436035
1675156315409209300,21.051209228515624,-3.384291648864746,2.5415821075439453,-3.030583381652832
1675156315429209300,21.071209228515624,-1.8264538049697876,3.6558783054351807,-9.769021034240723
1675156315449209300,21.091209228515623,-3.846871852874756,2.609636068344116,-7.640390396118164
1675156315469209300,21.111209228515627,-2.9243531227111816,-0.49801385402679443,-4.416419982910156
1675156315489209300,21.131209228515626,-2.511539936065674,-4.080691814422607,-2.1316986083984375
1675156315509209300,21.151209228515626,-3.1386260986328125,-2.739696502685547,2.5616583824157715
1675156315529209300,21.171209228515625,0.987442135810852,-2.112933874130249,7.289938926696777
1675156315549209300,21.191209228515625,1.0048288106918335,-3.210700273513794,9.139200210571289
1675156315569209300,21.211209228515624,2.0426344871520996,-4.081164836883545,11.84174633026123
1675156315589209300,21.231209228515624,2.2482495307922363,-4.5069499015808105,14.191682815551758
1675156315609209300,21.251209228515624,0.481673002243042,-3.341855049133301,15.745824813842773
1675156315629209300,21.271209228515627,-2.762493371963501,-3.0288825035095215,14.816717147827148
1675156315649208600,21.29120849609375,13.61998462677002,-4.713094234466553,8.209874153137207
1675156315669208600,21.31120849609375,19.173995971679688,-5.420696258544922,6.9831438064575195
1675156315689207800,21.331207763671873,3.4797849655151367,13.341935157775879,-9.645084381103516
1675156315709207000,21.35120703125,4.298218727111816,6.797749996185303,-32.921329498291016
1675156315729207000,21.37120703125,-2.09625506401062,-10.815340042114258,-13.679424285888672
1675156315749206800,21.391206787109375,-2.075073719024658,-5.4989142417907715,-6.0057830810546875
1675156315769206800,21.411206787109375,0.5127098560333252,-4.095916748046875,-7.477787971496582
1675156315789206800,21.431206787109375,-1.7457863092422485,-1.654596209526062,-8.558708190917969
1675156315809206800,21.451206787109374,-3.741879940032959,-0.754219114780426,-5.462471961975098
1675156315829206800,21.471206787109374,-3.4257724285125732,0.30787235498428345,-1.5647192001342773
1675156315849206000,21.4912060546875,-3.383744716644287,1.132607340812683,0.8494539260864258
1675156315869206300,21.511206298828125,-3.5018835067749023,1.6838178634643555,3.195645332336426
1675156315889206300,21.531206298828124,-2.962270498275757,2.0923166275024414,5.938549041748047
1675156315909206000,21.5512060546875,-0.21356141567230225,0.46180033683776855,9.245487213134766
1675156315929206000,21.5712060546875,3.3451852798461914,0.4536898136138916,10.473669052124023
1675156315949206000,21.5912060546875,4.519340991973877,-0.9366002082824707,12.056830406188965
1675156315969206000,21.6112060546875,0.8644775152206421,-1.2152349948883057,13.664634704589844
1675156315989206000,21.6312060546875,2.6299166679382324,-0.4636000990867615,13.469283103942871
1675156316009206000,21.6512060546875,12.070430755615234,-1.752539873123169,9.211746215820312
1675156316029206000,21.6712060546875,5.168452262878418,-5.395458698272705,-1.1215801239013672
1675156316049206000,21.6912060546875,3.1558032035827637,-8.694311141967773,-8.016671180725098
1675156316069206300,21.711206298828124,3.541567802429199,15.338144302368164,-29.739070892333984
1675156316089206300,21.731206298828123,-1.6730647087097168,9.665058135986328,-16.730754852294922
1675156316109206000,21.7512060546875,-3.0665223598480225,2.1588897705078125,-3.3095502853393555
1675156316129206000,21.7712060546875,-1.7101023197174072,1.757716178894043,-5.736870765686035
1675156316149206000,21.7912060546875,-3.4875597953796387,2.9095637798309326,-8.746471405029297
1675156316169206300,21.811206298828125,-3.1057677268981934,0.807023286819458,-4.871823310852051
1675156316189206000,21.8312060546875,-2.827341079711914,-3.0152130126953125,-3.044405937194824
1675156316209206000,21.8512060546875,-3.663510799407959,-2.0209598541259766,0.3366212844848633
1675156316229206000,21.8712060546875,-1.080161452293396,-3.9661593437194824,6.577396392822266
1675156316249206800,21.891206787109375,-0.06722527742385864,-4.0499162673950195,8.793567657470703
1675156316269206800,21.911206787109375,2.5473873615264893,-5.91810941696167,10.748135566711426
1675156316289207600,21.93120751953125,3.0373125076293945,-5.626335620880127,12.129483222961426
1675156316309208300,21.951208251953126,2.390857696533203,-3.554807186126709,14.170936584472656
1675156316329208300,21.971208251953126,-1.7194511890411377,-3.066318988800049,15.426071166992188
1675156316349208800,21.991208740234374,-1.9554823637008667,-3.2842636108398438,12.724833488464355
1675156316369208600,22.01120849609375,19.185848236083984,-7.23674201965332,6.129443645477295
1675156316389208600,22.03120849609375,5.918107986450195,4.780923843383789,4.674691200256348
1675156316409208600,22.05120849609375,2.277924060821533,20.947490692138672,-23.9353084564209
1675156316429208600,22.07120849609375,4.280066967010498,-6.723457336425781,-22.781450271606445
1675156316449209300,22.091209228515623,-2.8891115188598633,-9.465897560119629,-9.787790298461914
1675156316469209300,22.111209228515627,-0.19838613271713257,-4.838667869567871,-7.70048713684082
1675156316489209300,22.131209228515626,0.35929572582244873,-2.98909854888916,-10.025482177734375
1675156316509209300,22.151209228515626,-2.599586248397827,-2.0329089164733887,-8.214675903320312
1675156316529209300,22.171209228515625,-3.6881866455078125,-1.5438776016235352,-4.646944046020508
1675156316549209300,22.191209228515625,-2.9357850551605225,-0.16162091493606567,-1.968099594116211
1675156316569209300,22.211209228515624,-3.2103471755981445,1.1622135639190674,0.6343011856079102
1675156316589209300,22.231209228515624,-3.6584253311157227,1.6402536630630493,2.3035311698913574
1675156316609209300,22.251209228515624,-2.7074942588806152,1.6237988471984863,7.439722061157227
1675156316629209300,22.271209228515627,-0.28470075130462646,0.23402273654937744,10.34817123413086
1675156316649208600,22.29120849609375,2.377004623413086,-0.6504563093185425,11.788724899291992
1675156316669207800,22.311207763671874,2.8830320835113525,-1.540493130683899,13.640742301940918
1675156316689207000,22.33120703125,-0.2537047266960144,-1.1587278842926025,14.859086990356445
1675156316709206500,22.35120654296875,1.4431686401367188,-0.3480781316757202,14.07967758178711
1675156316729206500,22.37120654296875,12.257431983947754,-2.070201873779297,8.800519943237305
1675156316749205800,22.391205810546875,13.890798568725586,-4.756834506988525,-1.4926671981811523
1675156316769205800,22.411205810546875,2.761507034301758,-8.451139450073242,-8.124627113342285
1675156316789205800,22.431205810546874,1.119971513748169,12.994065284729004,-29.62210464477539
1675156316809205800,22.451205810546874,-1.8036024570465088,9.354193687438965,-15.990435600280762
1675156316829205800,22.471205810546873,-3.0149879455566406,3.917079448699951,-6.556970596313477
1675156316849205000,22.491205078125,-0.7131950855255127,1.4683165550231934,-9.248176574707031
1675156316869205000,22.511205078125,-3.133023500442505,2.926701545715332,-9.010566711425781
1675156316889205000,22.531205078125,-2.3882319927215576,0.9288754463195801,-5.2653961181640625
1675156316909205000,22.551205078125,-2.791220188140869,-1.9386935234069824,-3.0947322845458984
1675156316929205000,22.571205078125,-2.9306135177612305,-1.5103764533996582,0.7035913467407227
1675156316949205000,22.591205078125,-1.0554630756378174,-1.8198379278182983,6.373341083526611
1675156316969205000,22.611205078125,-0.3394172787666321,-2.026212453842163,8.831039428710938
1675156316989205000,22.631205078125,2.1974053382873535,-3.822458267211914,10.733901977539062
1675156317009205000,22.651205078125,1.9227030277252197,-4.655520439147949,11.439939498901367
1675156317029205000,22.671205078125,1.9126614332199097,-3.910858154296875,14.14818286895752
1675156317049205000,22.691205078125,-2.2881898880004883,-3.571981191635132,15.293898582458496
1675156317069205000,22.711205078125,-2.0708203315734863,-3.598155975341797,12.803150177001953
1675156317089205000,22.731205078125,18.215848922729492,-6.748428821563721,6.092087268829346
1675156317109205000,22.751205078125,4.279526233673096,3.5296359062194824,4.422937870025635
1675156317129205000,22.771205078125,5.748831748962402,17.888702392578125,-21.194629669189453
1675156317149205000,22.791205078125,3.3408541679382324,-2.374861240386963,-26.383541107177734
1675156317169205000,22.811205078125,-2.581394910812378,-5.314573287963867,-10.225293159484863
1675156317189205000,22.831205078125,-1.2697136402130127,-3.8306055068969727,-4.851001739501953
1675156317209205000,22.851205078125,0.682426929473877,-2.7767012119293213,-9.529293060302734
1675156317229205000,22.871205078125,-2.8568062782287598,-2.7184906005859375,-8.114829063415527
1675156317249205800,22.891205810546875,-3.116635799407959,-0.4097115397453308,-4.724030494689941
1675156317269206300,22.911206298828127,-3.202540397644043,0.798245370388031,-1.4189872741699219
1675156317289207300,22.931207275390626,-3.850602865219116,2.3674299716949463,1.2344865798950195
1675156317309207800,22.951207763671874,-4.232151031494141,2.1225528717041016,4.488121509552002
1675156317329208000,22.9712080078125,-2.5329384803771973,1.1406840085983276,7.176702976226807
1675156317349208600,22.99120849609375,0.02169036865234375,0.08867841958999634,9.192111015319824
1675156317369208600,23.01120849609375,2.8678646087646484,-0.6364718675613403,10.894454002380371
1675156317389208600,23.03120849609375,2.7119839191436768,-1.1633175611495972,12.764177322387695
1675156317409208600,23.05120849609375,-0.8374339938163757,-0.7281956672668457,14.312155723571777
1675156317429208600,23.07120849609375,-0.3501502573490143,-0.3292120695114136,14.420452117919922
1675156317449209300,23.091209228515623,15.510235786437988,-0.8352341651916504,8.090485572814941
1675156317469209300,23.111209228515627,3.4715287685394287,-5.817780494689941,-2.795522689819336
1675156317489209300,23.131209228515626,1.8624773025512695,-7.6098737716674805,-9.213347434997559
1675156317509209300,23.151209228515626,1.4221007823944092,16.316558837890625,-31.42845916748047
1675156317529209300,23.171209228515625,-2.130152702331543,5.871012210845947,-13.149199485778809
1675156317549209300,23.191209228515625,-2.306340456008911,0.8416843414306641,-4.259559631347656
1675156317569209300,23.211209228515624,-1.3458844423294067,2.7381224632263184,-9.58423137664795
1675156317589209300,23.231209228515624,-3.398934841156006,3.0694985389709473,-8.092169761657715
1675156317609209300,23.251209228515624,-3.439445972442627,1.9014170169830322,-6.299284934997559
1675156317629209300,23.271209228515627,-2.410027027130127,-2.380469799041748,-2.490206718444824
1675156317649209300,23.291209228515626,-5.026656627655029,-1.5384560823440552,0.6773519515991211
1675156317669208600,23.31120849609375,-1.293461561203003,-1.136086344718933,6.5305280685424805
1675156317689208000,23.3312080078125,-0.39416587352752686,-2.345609664916992,9.34862232208252
1675156317709207300,23.351207275390625,1.1219114065170288,-3.5012569427490234,10.947159767150879
1675156317729207300,23.371207275390624,1.8642058372497559,-4.937225341796875,12.110939979553223
1675156317749206800,23.391206787109375,1.7448511123657227,-4.212468147277832,12.57354736328125
1675156317769206800,23.411206787109375,-0.7556067705154419,-3.493277072906494,14.007144927978516
1675156317789206800,23.431206787109375,13.926753044128418,-5.918339729309082,9.30777359008789
1675156317809206800,23.451206787109374,1.040464162826538,0.38591575622558594,7.2107062339782715
1675156317829206800,23.471206787109374,4.347161769866943,9.318527221679688,-6.832096099853516
1675156317849206800,23.491206787109373,6.297854423522949,2.758474349975586,-31.278728485107422
1675156317869206800,23.511206787109376,-1.2331565618515015,-7.9534478187561035,-14.522894859313965
1675156317889206800,23.531206787109376,-0.9633704423904419,-3.6240832805633545,-2.6271095275878906
1675156317909206800,23.551206787109376,0.11730706691741943,-2.711040735244751,-6.182238578796387
1675156317929206800,23.571206787109375,-1.8491320610046387,-2.0674946308135986,-9.611241340637207
1675156317949206800,23.591206787109375,-2.847081184387207,-1.6957054138183594,-6.441817283630371
1675156317969206800,23.611206787109374,-3.1942200660705566,-0.8750465512275696,-2.893604278564453
1675156317989206800,23.631206787109374,-2.9049015045166016,0.383821964263916,0.16532611846923828
1675156318009206800,23.651206787109373,-3.1055893898010254,1.2210414409637451,2.3512234687805176
1675156318029206800,23.671206787109377,-3.4748411178588867,1.1685768365859985,5.1196112632751465
1675156318049206800,23.691206787109376,-2.1590800285339355,-0.3342477083206177,8.177973747253418
1675156318069206800,23.711206787109376,0.42348599433898926,-0.2736433744430542,10.093259811401367
1675156318089206800,23.731206787109375,3.1369290351867676,-1.3949421644210815,12.027156829833984
1675156318109206800,23.751206787109375,1.1602940559387207,-2.094574451446533,13.476606369018555
1675156318129206800,23.771206787109374,-1.18654203414917,-1.0117781162261963,13.914789199829102
1675156318149206800,23.791206787109374,9.813411712646484,-0.5176151990890503,10.623988151550293
1675156318169206800,23.811206787109374,18.389436721801758,-2.418362855911255,2.906923770904541
1675156318189206800,23.831206787109377,2.0166783332824707,-9.023554801940918,-7.498774528503418
1675156318209206800,23.851206787109376,3.71325421333313,6.574907302856445,-24.695234298706055
1675156318229206800,23.871206787109376,-2.878340721130371,15.767135620117188,-24.17392349243164
1675156318249206800,23.891206787109375,-4.20550012588501,3.2155113220214844,-3.8641252517700195
1675156318269207300,23.911207275390623,-0.7415764927864075,1.2845752239227295,-7.531783103942871
1675156318289208000,23.9312080078125,-2.7362170219421387,2.563261032104492,-10.046980857849121
1675156318309208800,23.951208740234375,-3.3467960357666016,0.9962236881256104,-5.802048683166504
1675156318329208800,23.971208740234374,-2.9433295726776123,-2.054753303527832,-3.7014331817626953
1675156318349209300,23.991209228515626,-4.817196369171143,-1.4013707637786865,-0.6942176818847656
1675156318369209300,24.011209228515625,-2.140923023223877,-1.846505880355835,4.124545574188232
1675156318389209300,24.031209228515625,-1.6416513919830322,-2.3528904914855957,7.518631935119629
1675156318409209300,24.051209228515624,-0.06204116344451904,-2.8037543296813965,8.326441764831543
1675156318429209300,24.071209228515624,2.402134895324707,-5.147647857666016,10.185638427734375
1675156318449209300,24.091209228515623,2.971273899078369,-4.2565741539001465,12.534415245056152
1675156318469209300,24.111209228515627,0.9766303300857544,-3.6417665481567383,14.637042999267578
1675156318489209300,24.131209228515626,8.382179260253906,-5.232360363006592,11.615872383117676
1675156318509209300,24.151209228515626,5.859542369842529,-1.5335787534713745,9.052278518676758
1675156318529209300,24.171209228515625,-1.3781776428222656,6.730148792266846,4.278939723968506
1675156318549209300,24.191209228515625,9.688199043273926,8.352828979492188,-14.968488693237305
1675156318569209300,24.211209228515624,2.5217719078063965,-0.7061620950698853,-28.602642059326172
1675156318589209300,24.231209228515624,-1.7851788997650146,-6.385591506958008,-10.41213321685791
1675156318609209300,24.251209228515624,0.31920158863067627,-3.4178810119628906,-2.9380407333374023
1675156318629209300,24.271209228515627,-0.3428495526313782,-0.7422881126403809,-8.379695892333984
1675156318649208600,24.29120849609375,-2.115380048751831,-1.8010482788085938,-8.210501670837402
1675156318669208000,24.3112080078125,-2.879962921142578,-1.7630141973495483,-5.563634872436523
1675156318689207000,24.33120703125,-3.1576924324035645,-1.5445804595947266,-4.0797014236450195
1675156318709206500,24.35120654296875,-2.504772186279297,0.37114131450653076,1.051997184753418
1675156318729206500,24.37120654296875,-2.9934163093566895,1.1820411682128906,2.236924171447754
1675156318749205800,24.391205810546875,-3.4351730346679688,1.8233855962753296,5.862743377685547
1675156318769205800,24.411205810546875,-2.8677971363067627,0.9527604579925537,7.123251438140869
1675156318789205800,24.431205810546874,-0.5051958560943604,-0.9070184230804443,10.500123023986816
1675156318809205800,24.451205810546874,1.3845208883285522,-1.5503954887390137,12.490402221679688
1675156318829205800,24.471205810546873,1.1885697841644287,-1.8938541412353516,13.304866790771484
1675156318849205800,24.491205810546877,-0.035585641860961914,-1.0780948400497437,13.920268058776855
1675156318869205800,24.511205810546876,14.692512512207031,0.06564438343048096,8.892781257629395
1675156318889205800,24.531205810546876,6.1170244216918945,-5.602687835693359,-1.1458377838134766
1675156318909205800,24.551205810546875,1.417597770690918,-8.85558032989502,-8.021310806274414
1675156318929205800,24.571205810546875,5.773403167724609,13.318451881408691,-29.850683212280273
1675156318949205800,24.591205810546874,-1.4185189008712769,10.25560188293457,-15.730609893798828
1675156318969205800,24.611205810546874,-3.0501487255096436,1.6151785850524902,-2.3590497970581055
1675156318989205800,24.631205810546874,-0.6507604718208313,2.3362698554992676,-8.875229835510254
1675156319009205800,24.651205810546877,-2.871358633041382,2.9022183418273926,-8.311294555664062
1675156319029205800,24.671205810546876,-3.464900255203247,1.7647693157196045,-6.226696968078613
1675156319049205800,24.691205810546876,-2.6316170692443848,-1.7780930995941162,-3.2595396041870117
1675156319069205800,24.711205810546875,-5.0720720291137695,-2.3418936729431152,-0.4795083999633789
1675156319089205800,24.731205810546875,-2.539757490158081,-1.0100979804992676,4.948844909667969
1675156319109205800,24.751205810546875,-1.967063546180725,-2.9605469703674316,8.951470375061035
1675156319129205800,24.771205810546874,0.4380068778991699,-4.266674041748047,10.428666114807129
1675156319149205800,24.791205810546874,2.409425735473633,-6.5777482986450195,11.945868492126465
1675156319169205800,24.811205810546873,2.2139315605163574,-3.9321417808532715,12.861294746398926
1675156319189205800,24.831205810546876,-1.458198070526123,-2.7206618785858154,14.550559043884277
1675156319209205800,24.851205810546876,2.1155147552490234,-4.075718879699707,12.173768997192383
1675156319229205800,24.871205810546876,18.18327522277832,-5.514909744262695,8.01197338104248
1675156319249206500,24.89120654296875,-2.148726463317871,9.826432228088379,3.308034896850586
1675156319269207300,24.911207275390623,8.983380317687988,15.176445007324219,-24.027355194091797
1675156319289208000,24.9312080078125,4.426492214202881,-11.258184432983398,-26.425731658935547
1675156319309208800,24.951208740234375,-1.4268231391906738,-7.876430988311768,-9.12195110321045
