time,seconds_elapsed,z,y,x
1675156294409684200,0.051684326171875,9.792584419250488,2.1954829692840576,-0.6272808313369751
1675156294429684200,0.071684326171875,9.577106475830078,2.2649147510528564,-0.5003881454467773
1675156294458381600,0.100381591796875,9.71357536315918,2.3511061668395996,-0.5770025849342346
1675156294478381000,0.120381103515625,9.639355659484863,2.231395959854126,-0.4381389021873474
1675156294498380500,0.140380615234375,9.58668327331543,2.207453966140747,-0.33039984107017517
1675156294518380500,0.160380615234375,9.495702743530273,2.2242133617401123,-0.22505496442317963
1675156294538380300,0.18038037109375,9.605836868286133,2.2577321529388428,-0.35434186458587646
1675156294558380300,0.20038037109375,9.823708534240723,2.2888567447662354,-0.5913678407669067
1675156294578380000,0.220380126953125,9.632172584533691,2.2218191623687744,-0.5434837937355042
1675156294598380000,0.240380126953125,9.591471672058105,2.2864625453948975,-0.47405192255973816
1675156294618380000,0.260380126953125,9.632172584533691,2.1547815799713135,-0.45489832758903503
1675156294638380000,0.280380126953125,9.591471672058105,2.1380221843719482,-0.40940847992897034
1675156294658378000,0.3003779296875,9.569923400878906,2.123656988143921,-0.3711012601852417
1675156294678377700,0.320377685546875,9.749488830566406,2.0470423698425293,-0.3926490843296051
1675156294698375400,0.34037548828125,9.941024780273438,1.9273324012756348,-0.524330198764801
1675156294718374700,0.360374755859375,9.87159252166748,2.056619167327881,-0.4357447028160095
1675156294738374000,0.380373779296875,9.708786964416504,2.1140801906585693,-0.3902548849582672
1675156294758372400,0.400372314453125,9.58668327331543,2.166752576828003,-0.3208230137825012
1675156294778372400,0.420372314453125,9.694421768188477,2.2912509441375732,-0.5722141861915588
1675156294798372400,0.440372314453125,9.897929191589355,2.4229321479797363,-0.5315127968788147
1675156294818372400,0.460372314453125,9.912294387817383,2.1308395862579346,-0.33758243918418884
1675156294838372400,0.480372314453125,9.613018989562988,1.9081788063049316,-0.047884032130241394
1675156294858372400,0.500372314453125,9.505280494689941,2.185906171798706,-0.21308395266532898
1675156294878372400,0.520372314453125,9.572318077087402,2.492363929748535,-0.24660277366638184
1675156294898372400,0.540372314453125,9.723152160644531,2.360682964324951,-0.24420857429504395
1675156294918372400,0.560372314453125,9.52922248840332,2.1068975925445557,-0.17477671802043915
1675156294938372400,0.580372314453125,9.251494407653809,2.0015525817871094,0.033518824726343155
1675156294958373600,0.60037353515625,9.325715065002441,2.2194249629974365,-0.17956513166427612
1675156294978373600,0.62037353515625,9.469367027282715,2.205059766769409,-0.3711012601852417
1675156294998375400,0.64037548828125,9.306561470031738,2.1547815799713135,-0.4596867263317108
1675156295018376200,0.660376220703125,9.210793495178223,2.3726539611816406,-0.4405331015586853
1675156295038377000,0.680376953125,9.28261947631836,2.3989901542663574,-0.33039984107017517
1675156295058378500,0.70037841796875,9.574711799621582,2.212242364883423,-0.33997663855552673
1675156295078378500,0.72037841796875,9.517251014709473,2.097320795059204,-0.23702596127986908
1675156295098378500,0.74037841796875,9.411906242370605,2.207453966140747,-0.2059013396501541
1675156295118378500,0.76037841796875,9.371204376220703,2.343923568725586,-0.11013327538967133
1675156295138378500,0.78037841796875,9.517251014709473,2.231395959854126,-0.1412578970193863
1675156295158378500,0.80037841796875,9.572318077087402,2.183511972427368,-0.06703764945268631
1675156295178378500,0.82037841796875,9.560346603393555,2.319981336593628,-0.2777273952960968
1675156295198378500,0.84037841796875,9.548376083374023,2.4444799423217773,-0.30885201692581177
1675156295218378500,0.86037841796875,9.615413665771484,2.5474305152893066,-0.28730419278144836
1675156295238378500,0.88037841796875,9.593865394592285,2.3535003662109375,-0.18914192914962769
1675156295258378500,0.90037841796875,9.878775596618652,2.3918075561523438,-0.47884035110473633
1675156295278378500,0.92037841796875,9.974543571472168,2.432508945465088,-0.6368576288223267
1675156295298378200,0.940378173828125,9.65372085571289,2.382230758666992,-0.3711012601852417
1675156295318378200,0.960378173828125,9.490914344787598,2.31758713722229,-0.24181437492370605
1675156295338378200,0.980378173828125,9.574711799621582,2.276885747909546,-0.31603461503982544
1675156295358377700,1.000377685546875,9.581894874572754,2.2409727573394775,-0.2992752194404602
1675156295378377700,1.020377685546875,9.555558204650879,2.2409727573394775,-0.33039984107017517
1675156295398377700,1.040377685546875,9.701604843139648,2.188300371170044,-0.4165911078453064
1675156295418377700,1.060377685546875,9.65372085571289,2.0590133666992188,-0.272938996553421
1675156295438378000,1.0803779296875,9.543587684631348,2.0685901641845703,-0.1604115068912506
1675156295458377700,1.100377685546875,9.486125946044922,2.185906171798706,-0.14365209639072418
1675156295478378000,1.1203779296875,9.522039413452148,2.279279947280884,-0.2346317619085312
1675156295498377700,1.140377685546875,9.641749382019043,2.1356279850006104,-0.2537853717803955
1675156295518378000,1.1603779296875,9.658509254455566,2.1739351749420166,-0.272938996553421
1675156295538378000,1.1803779296875,9.68005657196045,2.252943754196167,-0.3711012601852417
1675156295558378000,1.2003779296875,9.692028045654297,2.205059766769409,-0.38067805767059326
1675156295578377700,1.220377685546875,9.706393241882324,2.1499931812286377,-0.3471592366695404
1675156295598378000,1.2403779296875,9.771036148071289,2.229001760482788,-0.42616790533065796
1675156295618378000,1.2603779296875,9.658509254455566,2.279279947280884,-0.3471592366695404
1675156295638378000,1.2803779296875,9.572318077087402,2.279279947280884,-0.38067805767059326
1675156295658377000,1.300376953125,9.459790229797363,2.3032219409942627,-0.2561795711517334
1675156295678375700,1.320375732421875,9.536404609680176,2.2194249629974365,-0.3280056416988373
1675156295698374000,1.340373779296875,9.47415542602539,2.2170307636260986,-0.2992752194404602
1675156295718373400,1.360373291015625,9.536404609680176,2.4013843536376953,-0.3926490843296051
1675156295738373400,1.380373291015625,9.598653793334961,2.367865562438965,-0.3423708379268646
1675156295758373400,1.400373291015625,9.65372085571289,2.229001760482788,-0.30885201692581177
1675156295778373000,1.420373046875,9.545981407165527,2.2577321529388428,-0.33279404044151306
1675156295798373400,1.440373291015625,9.421483039855957,2.2385785579681396,-0.26575639843940735
1675156295818373400,1.460373291015625,9.311349868774414,2.2433669567108154,-0.2298433631658554
1675156295841211000,1.4832109375,9.34965705871582,2.315192937850952,-0.2801215946674347
1675156295861211000,1.5032109375,9.38317584991455,2.1954829692840576,-0.2585737705230713
1675156295881211000,1.5232109375,9.153332710266113,2.209848165512085,-0.0071826050989329815
1675156295901211000,1.5432109375,9.024045944213867,2.2170307636260986,0.09576806426048279
1675156295921211000,1.5632109375,9.160514831542969,2.2361843585968018,-0.2801215946674347
1675156295941211000,1.5832109375,9.639355659484863,2.801215887069702,-1.0773907899856567
1675156295961212200,1.603212158203125,9.80455493927002,3.0095114707946777,-1.1803414821624756
1675156295981213400,1.62321337890625,9.5316162109375,2.389413356781006,-0.7158663272857666
1675156296001215500,1.643215576171875,9.617807388305664,2.0039467811584473,-0.6871358752250671
1675156296021216000,1.663216064453125,9.830891609191895,1.599326729774475,-0.6775590777397156
1675156296041216000,1.683216064453125,9.749488830566406,1.6927006244659424,-0.7996633648872375
1675156296061216000,1.703216064453125,9.557952880859375,2.030282974243164,-0.6200982332229614
1675156296081216000,1.723216064453125,9.591471672058105,1.8914192914962769,-0.8092401623725891
1675156296101216000,1.743216064453125,9.790189743041992,1.6855180263519287,-0.7374141216278076
1675156296121216000,1.763216064453125,9.52922248840332,1.4484920501708984,-0.608127236366272
1675156296141216000,1.783216064453125,9.19163990020752,1.6136919260025024,-0.304063618183136
1675156296161216000,1.803216064453125,9.22515869140625,1.824381709098816,-0.9600749015808105
1675156296181216000,1.823216064453125,9.519645690917969,1.455674648284912,-0.8427590131759644
1675156296201216000,1.843216064453125,9.62020206451416,1.3838485479354858,-0.47165772318840027
1675156296221216000,1.863216064453125,9.378387451171875,1.290474772453308,-0.7972691655158997
1675156296241216000,1.883216064453125,9.715970039367676,1.2521674633026123,-1.091755986213684
1675156296261216000,1.903216064453125,10.118195533752441,0.9840168952941895,-1.5825673341751099
1675156296281216000,1.923216064453125,9.974543571472168,1.05105459690094,-1.2401964664459229
1675156296301216000,1.943216064453125,9.761459350585938,0.4620809257030487,-0.871489405632019
1675156296321216000,1.963216064453125,10.151714324951172,-0.17477671802043915,-0.8762778043746948
1675156296341216000,1.983216064453125,10.388740539550781,0.5937620401382446,-0.507570743560791
1675156296361216000,2.003216064453125,10.407894134521484,1.0893617868423462,-1.3982137441635132
1675156296381216000,2.023216064453125,9.210793495178223,1.6950948238372803,-0.9672574996948242
1675156296401216000,2.043216064453125,8.312967300415039,1.8698714971542358,-0.5817909836769104
1675156296421216000,2.063216064453125,8.368034362792969,1.6855180263519287,-1.1061211824417114
1675156296441216000,2.083216064453125,8.822932243347168,1.647210717201233,-1.4053963422775269
1675156296461216000,2.103216064453125,9.22515869140625,1.9776105880737305,-1.290474772453308
1675156296481216000,2.123216064453125,9.069535255432129,2.03507137298584,-2.4660277366638184
1675156296501216000,2.143216064453125,9.979331970214844,3.7229835987091064,-3.0550012588500977
1675156296521216000,2.163216064453125,9.285013198852539,3.466804027557373,-3.00711727142334
1675156296541216000,2.183216064453125,8.667309761047363,3.5410242080688477,-2.9041666984558105
1675156296561216000,2.203216064453125,7.956231594085693,4.146757125854492,-2.8778305053710938
1675156296581216000,2.223216064453125,7.577947616577148,4.098873138427734,-2.494758129119873
1675156296601216000,2.243216064453125,7.151779651641846,3.3470940589904785,-1.8698714971542358
1675156296621216000,2.263216064453125,7.020098686218262,3.287238836288452,-1.9704279899597168
1675156296641216000,2.283216064453125,7.850886821746826,3.7229835987091064,-2.7676970958709717
1675156296661214700,2.303214599609375,8.487744331359863,3.6846764087677,-3.3949780464172363
1675156296681213400,2.32321337890625,9.253889083862305,3.7684733867645264,-4.304774761199951
1675156296701211600,2.343211669921875,9.335291862487793,3.665522813796997,-4.213795185089111
1675156296721210400,2.36321044921875,7.860463619232178,3.689464807510376,-3.6391866207122803
1675156296741209300,2.383209228515625,5.887641429901123,3.821146011352539,-3.4189200401306152
1675156296761208600,2.40320849609375,2.049436569213867,7.628225803375244,-5.703287601470947
1675156296781208600,2.42320849609375,0.2082955539226532,10.77420711517334,-7.89158821105957
1675156296801208600,2.44320849609375,1.4437036514282227,11.396698951721191,-7.980173587799072
1675156296821208600,2.46320849609375,3.3470940589904785,7.862857818603516,-8.212410926818848
1675156296841207800,2.483207763671875,3.4189200401306152,5.262754440307617,-6.996156692504883
1675156296861207800,2.503207763671875,2.233790159225464,5.485415458679199,-5.334580898284912
1675156296881207800,2.523207763671875,3.315969467163086,3.4189200401306152,-6.347328186035156
1675156296901207800,2.543207763671875,8.449437141418457,0.15801730751991272,-8.482955932617188
1675156296921207800,2.563207763671875,7.771877765655518,2.2673089504241943,-8.056788444519043
1675156296941207800,2.583207763671875,5.02094030380249,4.627991676330566,-7.810185432434082
1675156296961209000,2.603208984375,3.550601005554199,5.511751651763916,-8.248324394226074
1675156296981210400,2.62321044921875,2.5498247146606445,5.952284812927246,-7.841310024261475
1675156297001212200,2.643212158203125,2.2864625453948975,5.351340293884277,-7.190086841583252
1675156297021213400,2.66321337890625,2.425326347351074,5.044882297515869,-7.187692642211914
1675156297041214500,2.68321435546875,2.4396915435791016,5.097554683685303,-7.688080787658691
1675156297061215200,2.70321533203125,2.9951462745666504,6.230011940002441,-10.486903190612793
1675156297081215200,2.72321533203125,1.9823989868164062,5.674557209014893,-7.168539047241211
1675156297101215200,2.74321533203125,0.790086567401886,4.01268196105957,-7.441478252410889
1675156297121215200,2.76321533203125,4.809951305389404,6.766313076019287,-10.822091102600098
1675156297141216000,2.783216064453125,4.596867084503174,6.12945556640625,-11.324872970581055
1675156297161216000,2.803216064453125,2.7748796939849854,3.1938650608062744,-10.491691589355469
1675156297181216000,2.823216064453125,1.534683346748352,4.520252704620361,-9.601048469543457
1675156297201216000,2.843216064453125,-0.6009446382522583,5.81342077255249,-9.064746856689453
1675156297221216000,2.863216064453125,-0.21787235140800476,4.189853191375732,-9.004891395568848
1675156297241216000,2.883216064453125,-0.6177040338516235,3.732560396194458,-8.372822761535645
1675156297261216000,2.903216064453125,-1.2282254695892334,3.8139634132385254,-8.097489356994629
1675156297281216000,2.923216064453125,-1.5825673341751099,3.7612907886505127,-8.573935508728027
1675156297301216000,2.943216064453125,-0.8236053586006165,4.754884719848633,-9.122207641601562
1675156297321216000,2.963216064453125,0.5554547905921936,5.351340293884277,-9.993697166442871
1675156297341216000,2.983216064453125,2.537853717803955,6.0743889808654785,-11.956942558288574
1675156297361216000,3.003216064453125,2.7102363109588623,6.268319129943848,-11.525986671447754
1675156297381216000,3.023216064453125,1.0678139925003052,5.2124762535095215,-10.910676002502441
1675156297401216000,3.043216064453125,3.5170822143554688,5.1023430824279785,-11.875539779663086
1675156297421216000,3.063216064453125,3.4524388313293457,4.4723687171936035,-10.03918743133545
1675156297441216000,3.083216064453125,4.141968727111816,4.668693542480469,-9.541193008422852
1675156297461216000,3.103216064453125,9.435848236083984,4.3406877517700195,-9.792584419250488
1675156297481216000,3.123216064453125,10.728716850280762,4.857835292816162,-9.68005657196045
1675156297501216000,3.143216064453125,7.656956195831299,5.365705490112305,-7.309797286987305
1675156297521216000,3.163216064453125,4.9060187339782715,5.126285076141357,-4.141968727111816
1675156297541216000,3.183216064453125,4.230554580688477,4.54419469833374,-1.8195933103561401
1675156297561216000,3.203216064453125,5.765536785125732,4.503493309020996,-1.0630255937576294
1675156297581216000,3.223216064453125,7.429507255554199,3.4572272300720215,-1.8387469053268433
1675156297601216000,3.243216064453125,6.481403350830078,2.367865562438965,-1.0462661981582642
1675156297621216000,3.263216064453125,6.012139797210693,2.9065608978271484,-0.35673606395721436
1675156297641216000,3.283216064453125,6.230011940002441,3.2106244564056396,0.07900865375995636
1675156297661214700,3.303214599609375,7.714416980743408,3.246537446975708,0.05267243832349777
1675156297681213200,3.323213134765625,8.59308910369873,2.7006595134735107,0.33279404044151306
1675156297701211400,3.34321142578125,9.251494407653809,1.8339585065841675,0.11971008777618408
1675156297721210000,3.363210205078125,9.31853199005127,1.213860273361206,0.5482721924781799
1675156297741210000,3.383210205078125,9.641749382019043,1.5873557329177856,0.2753331959247589
1675156297761209600,3.403209716796875,9.402329444885254,2.1930887699127197,-0.05506663769483566
1675156297781209600,3.423209716796875,8.657732963562012,2.513911724090576,-0.24181437492370605
1675156297801209300,3.443209228515625,8.545205116271973,2.5091233253479004,-0.2753331959247589
1675156297821209300,3.463209228515625,8.959402084350586,2.454056739807129,-0.6512228846549988
1675156297841209300,3.483209228515625,9.646537780761719,2.4420857429504395,-1.3239935636520386
1675156297861209300,3.503209228515625,10.115801811218262,2.1164743900299072,-1.7741034030914307
1675156297881209300,3.523209228515625,9.964966773986816,2.0829553604125977,-1.7764976024627686
1675156297901209300,3.543209228515625,9.545981407165527,2.1811177730560303,-1.5059528350830078
1675156297921209300,3.563209228515625,9.660902976989746,2.190694570541382,-1.6903064250946045
1675156297941209300,3.583209228515625,9.550769805908203,2.2409727573394775,-1.5394717454910278
1675156297961210600,3.603210693359375,9.426271438598633,2.4636335372924805,-1.4437036514282227
1675156297981212200,3.623212158203125,9.65611457824707,2.7916390895843506,-1.6543933153152466
1675156298001214000,3.6432138671875,9.632172584533691,2.6647465229034424,-1.4963760375976562
1675156298021215500,3.663215576171875,9.663297653198242,2.27209734916687,-1.2641384601593018
1675156298041215500,3.683215576171875,9.483732223510742,2.1356279850006104,-0.811634361743927
1675156298061216000,3.703216064453125,9.086295127868652,1.9776105880737305,-0.10055647045373917
1675156298081216000,3.723216064453125,8.52605152130127,1.3287819623947144,0.7469909191131592
1675156298101216000,3.743216064453125,8.336909294128418,1.3024457693099976,0.3232172429561615
1675156298121216000,3.763216064453125,7.963414192199707,2.140416383743286,-0.6033388376235962
1675156298141216000,3.783216064453125,7.127837657928467,2.5067291259765625,-0.9888052940368652
1675156298161215700,3.8032158203125,6.146214962005615,3.3279404640197754,-1.9560627937316895
1675156298181215500,3.823215576171875,6.277895927429199,5.013757705688477,-4.0749311447143555
1675156298201215500,3.843215576171875,6.8501105308532715,7.137414455413818,-6.529287338256836
1675156298221215500,3.863215576171875,6.969820499420166,7.154173851013184,-5.890035629272461
1675156298241215500,3.883215576171875,7.000945091247559,7.23797082901001,-5.205293655395508
1675156298261215500,3.903215576171875,6.0743889808654785,6.859687328338623,-5.535693645477295
1675156298281215500,3.923215576171875,5.51893424987793,6.747159481048584,-6.409577369689941
1675156298301215500,3.943215576171875,5.150227069854736,6.699275493621826,-6.75194787979126
1675156298321215500,3.963215576171875,4.23773717880249,6.993762493133545,-6.546046733856201
1675156298341215500,3.983215576171875,3.584120035171509,8.188468933105469,-6.2491655349731445
1675156298361215500,4.003215576171875,3.9863457679748535,8.7175874710083,-5.72244119644165
1675156298381215500,4.023215576171875,4.81473970413208,7.5875244140625,-5.284302234649658
1675156298401215500,4.043215576171875,4.611232280731201,7.041646480560303,-5.241206645965576
1675156298421215500,4.063215576171875,3.2178070545196533,7.309797286987305,-5.7200469970703125
1675156298441215500,4.083215576171875,3.3901896476745605,7.8006086349487305,-5.358522891998291
1675156298461216000,4.103216064453125,2.454056739807129,8.068758964538574,-3.8355112075805664
1675156298481216000,4.123216064453125,0.950498104095459,7.731176376342773,-2.9735984802246094
1675156298501216000,4.143216064453125,1.3718775510787964,7.939472198486328,-3.0406360626220703
1675156298521216000,4.163216064453125,1.1420341730117798,8.633790969848633,-3.4955344200134277
1675156298541216000,4.183216064453125,0.9816226959228516,8.61703109741211,-3.4811692237854004
1675156298561216000,4.203216064453125,1.5969325304031372,9.234735488891602,-3.6727054119110107
1675156298581215700,4.2232158203125,2.0398597717285156,9.581894874572754,-3.40216064453125
1675156298601216000,4.243216064453125,0.912190854549408,8.760683059692383,-2.6839001178741455
1675156298621215700,4.2632158203125,0.11013327538967133,7.381623268127441,-2.10210919380188
1675156298641216000,4.283216064453125,-0.08379705995321274,7.441478252410889,-1.3934253454208374
1675156298661215200,4.30321533203125,-0.090979665517807,7.956231594085693,-2.075772762298584
1675156298681213700,4.323213623046875,0.9457096457481384,8.820538520812988,-3.337517261505127
1675156298701212200,4.343212158203125,1.5083470344543457,8.95700740814209,-3.222595453262329
1675156298721210600,4.363210693359375,1.0630255937576294,9.131784439086914,-2.432508945465088
1675156298741210000,4.383210205078125,-0.026336219161748886,9.500492095947266,-1.7741034030914307
1675156298761210000,4.403210205078125,-1.015141487121582,9.486125946044922,-1.115697979927063
1675156298781210000,4.423210205078125,-0.8068459630012512,9.969755172729492,-1.7070658206939697
1675156298801210400,4.44321044921875,1.0869675874710083,10.972926139831543,-2.535459518432617
1675156298821210400,4.46321044921875,1.316810965538025,10.436624526977539,-2.6599581241607666
1675156298841210400,4.48321044921875,0.05267243832349777,10.020033836364746,-2.4396915435791016
1675156298861210400,4.50321044921875,-0.646434485912323,10.47253704071045,-2.099714994430542
1675156298881210400,4.52321044921875,-0.8690952062606812,10.850821495056152,-2.099714994430542
1675156298901210400,4.54321044921875,-0.0933738648891449,10.98729133605957,-2.978386878967285
1675156298921210400,4.56321044921875,0.689530074596405,11.118971824645996,-2.9544448852539062
1675156298941210400,4.58321044921875,0.6320692300796509,11.547533988952637,-2.410961151123047
1675156298961211000,4.6032109375,0.5339069962501526,11.423035621643066,-1.8770540952682495
1675156298981212400,4.62321240234375,0.6272808313369751,10.98729133605957,-1.9369091987609863
1675156299001214200,4.643214111328125,1.015141487121582,10.96813678741455,-2.408566951751709
1675156299021215700,4.6632158203125,1.5705963373184204,11.789348602294922,-2.6647465229034424
1675156299041216000,4.683216064453125,1.647210717201233,12.380716323852539,-2.188300371170044
1675156299061216000,4.703216064453125,0.5650315880775452,12.342409133911133,-1.9129672050476074
1675156299081216000,4.723216064453125,0.49559974670410156,11.427824020385742,-1.7764976024627686
1675156299101215700,4.7432158203125,1.1085153818130493,10.860398292541504,-1.5610195398330688
1675156299121215700,4.7632158203125,0.849941611289978,11.772588729858398,-1.5729905366897583
1675156299141215700,4.7832158203125,0.3232172429561615,12.651261329650879,-1.6711528301239014
1675156299161216000,4.803216064453125,0.4165911078453064,12.560281753540039,-1.8411411046981812
1675156299181216000,4.823216064453125,0.9289502501487732,12.366351127624512,-1.7549498081207275
1675156299201216000,4.843216064453125,0.6847416758537292,11.90666389465332,-1.3958195447921753
1675156299221215700,4.8632158203125,0.12689268589019775,11.008838653564453,-1.314416766166687
1675156299241216000,4.883216064453125,0.22744916379451752,10.101436614990234,-1.0079588890075684
1675156299261216000,4.903216064453125,0.8619126081466675,10.395922660827637,-1.048660397529602
1675156299281215700,4.9232158203125,1.5442601442337036,10.620978355407715,-1.0630255937576294
1675156299301215700,4.9432158203125,1.7070658206939697,10.889128684997559,-1.2282254695892334
1675156299321215500,4.963215576171875,2.073378562927246,10.25466537475586,-0.8858546018600464
1675156299341215500,4.983215576171875,1.644816517829895,9.581894874572754,-0.8786720037460327
1675156299361215500,5.003215576171875,1.4891934394836426,9.093477249145508,-1.1492167711257935
1675156299381215500,5.023215576171875,0.7398083209991455,9.617807388305664,-1.6519991159439087
1675156299401215500,5.043215576171875,0.8738836050033569,10.010457038879395,-1.7693150043487549
1675156299421215500,5.063215576171875,0.545877993106842,10.422259330749512,-1.9991583824157715
1675156299441215500,5.083215576171875,0.15083470940589905,9.524434089660645,-1.0534487962722778
1675156299461215500,5.103215576171875,0.4213795065879822,8.063970565795898,-1.0103530883789062
1675156299481215500,5.123215576171875,-0.07182604819536209,8.013691902160645,-1.0845733880996704
1675156299501215500,5.143215576171875,-0.09576806426048279,8.583512306213379,-1.0414776802062988
1675156299521215500,5.163215576171875,-0.07182604819536209,8.135796546936035,-1.4173674583435059
1675156299541215500,5.183215576171875,0.7709329724311829,8.597877502441406,-1.3263877630233765
1675156299561215500,5.203215576171875,0.45489832758903503,9.256282806396484,-0.9959878921508789
1675156299581215500,5.223215576171875,0.4118026793003082,8.949825286865234,-1.1492167711257935
1675156299601215500,5.243215576171875,1.4101848602294922,8.633790969848633,-1.460463047027588
1675156299621215700,5.2632158203125,1.0869675874710083,8.827720642089844,-1.2689268589019775
1675156299641215700,5.2832158203125,1.479616641998291,9.481337547302246,-1.3623007535934448
1675156299661214500,5.30321435546875,2.8395233154296875,10.132560729980469,-0.6775590777397156
1675156299681213200,5.323213134765625,2.0590133666992188,11.051934242248535,0.5817909836769104
1675156299701211400,5.34321142578125,0.7876923680305481,12.466907501220703,0.5530605912208557
1675156299721210000,5.363210205078125,2.956839084625244,11.609783172607422,-0.28730419278144836
1675156299741209900,5.3832099609375,3.488351821899414,9.040804862976074,-0.19393034279346466
1675156299761208300,5.403208251953125,2.3918075561523438,8.28663158416748,-0.33279404044151306
1675156299781208300,5.423208251953125,5.605125427246094,8.257901191711426,-0.8762778043746948
1675156299801208300,5.443208251953125,7.601889610290527,8.169315338134766,-0.29209262132644653
1675156299821208300,5.463208251953125,5.116708278656006,7.721599578857422,1.3479355573654175
1675156299841208300,5.483208251953125,4.144362926483154,7.690474987030029,0.7493851184844971
1675156299861208300,5.503208251953125,6.378452777862549,6.905177116394043,-1.0582371950149536
1675156299881208300,5.523208251953125,5.241206645965576,6.905177116394043,-1.2473790645599365
1675156299901208300,5.543208251953125,3.751713991165161,7.539640426635742,-1.1755530834197998
1675156299921208300,5.563208251953125,2.628833532333374,6.816591739654541,-2.892195701599121
1675156299941208300,5.583208251953125,3.7612907886505127,4.5154643058776855,-4.484339714050293
1675156299961209600,5.603209716796875,3.047818660736084,4.185064792633057,-3.754108190536499
1675156299981211000,5.6232109375,4.774038314819336,7.0033392906188965,-3.799597978591919
1675156300001212700,5.643212646484375,8.420706748962402,9.033622741699219,-3.8570590019226074
1675156300021214000,5.6632138671875,9.526827812194824,6.7567362785339355,-3.708618402481079
1675156300041214500,5.68321435546875,10.563517570495605,4.153939723968506,-2.7988216876983643
1675156300061216000,5.703216064453125,-0.4213795065879822,6.3425397872924805,-5.006575107574463
1675156300081215700,5.7232158203125,5.660192012786865,7.81257963180542,-6.055235385894775
1675156300101216000,5.743216064453125,7.350498676300049,2.779668092727661,-6.40000057220459
1675156300121216000,5.763216064453125,6.201281547546387,2.279279947280884,-7.884405612945557
1675156300141216000,5.783216064453125,3.9456443786621094,0.7924807667732239,-8.540416717529297
1675156300161215700,5.8032158203125,3.892971992492676,1.9177556037902832,-9.964966773986816
1675156300181216000,5.823216064453125,6.44549036026001,7.127837657928467,-14.068628311157227
1675156300201216000,5.843216064453125,6.742371082305908,7.4223246574401855,-16.613964080810547
1675156300221216000,5.863216064453125,5.279513835906982,7.333739280700684,-17.10956382751465
1675156300241215700,5.8832158203125,2.762908697128296,5.981015205383301,-14.882956504821777
1675156300261216000,5.903216064453125,1.194706678390503,5.245995044708252,-11.794137001037598
1675156300281215700,5.9232158203125,1.05105459690094,4.302380561828613,-8.633790969848633
1675156300301216000,5.943216064453125,1.290474772453308,4.477157115936279,-7.111078262329102
1675156300321216000,5.963216064453125,0.5650315880775452,5.018546104431152,-6.232406139373779
1675156300341215500,5.983215576171875,-0.272938996553421,4.347870349884033,-5.935525417327881
1675156300361215500,6.003215576171875,0.27054479718208313,2.786850690841675,-6.548440933227539
1675156300381215500,6.023215576171875,0.5578489899635315,2.1092917919158936,-8.600272178649902
1675156300401215500,6.043215576171875,1.3311761617660522,2.3127987384796143,-10.328885078430176
1675156300421215500,6.063215576171875,8.61463737487793,-0.1149216815829277,-9.902717590332031
1675156300441215500,6.083215576171875,6.452672958374023,1.4724340438842773,-9.244312286376953
1675156300461215500,6.103215576171875,-3.2537200450897217,5.116708278656006,-8.743924140930176
1675156300481215500,6.123215576171875,-4.901230335235596,5.334580898284912,-7.814973831176758
1675156300501215500,6.143215576171875,-4.307168960571289,2.7557260990142822,-7.738358974456787
1675156300521215500,6.163215576171875,-1.9919757843017578,0.4429273009300232,-8.810961723327637
1675156300541215500,6.183215576171875,-0.10295066982507706,-3.2393548488616943,-10.223540306091309
1675156300561215500,6.203215576171875,0.3016694188117981,-8.425495147705078,-11.719916343688965
1675156300581215500,6.223215576171875,-2.3535003662109375,-5.152621269226074,-11.770195007324219
1675156300601215500,6.243215576171875,-3.6535518169403076,1.3096283674240112,-9.933841705322266
1675156300621215500,6.263215576171875,-2.279279947280884,1.256955862045288,-9.014469146728516
1675156300641215700,6.2832158203125,-1.5394717454910278,-0.26336219906806946,-9.998485565185547
1675156300661214500,6.30321435546875,-0.40701428055763245,-0.6703764796257019,-10.187627792358398
1675156300681213200,6.323213134765625,-1.2880805730819702,-0.031124621629714966,-9.828496932983398
1675156300701211400,6.34321142578125,-2.049436569213867,0.5267243981361389,-9.6896333694458
1675156300721210000,6.363210205078125,-1.9177556037902832,0.45010992884635925,-9.809343338012695
1675156300741209600,6.383209716796875,-2.1045033931732178,0.8355764150619507,-10.467748641967773
1675156300761209000,6.403208984375,-1.8579005002975464,0.10295066982507706,-9.8691987991333
1675156300781209000,6.423208984375,-1.5658079385757446,0.26096799969673157,-9.842862129211426
1675156300801209000,6.443208984375,-1.3024457693099976,0.11971008777618408,-9.641749382019043
1675156300821209000,6.463208984375,-1.8052281141281128,0.5482721924781799,-9.648932456970215
1675156300841209000,6.483208984375,-2.2649147510528564,1.1085153818130493,-9.988908767700195
1675156300861209000,6.503208984375,-2.387019157409668,0.9528923034667969,-11.427824020385742
1675156300881209000,6.523208984375,-2.3989901542663574,0.05985504388809204,-13.173196792602539
1675156300901209000,6.543208984375,-2.3582887649536133,-0.8738836050033569,-15.29715347290039
1675156300921209000,6.563208984375,-1.2425906658172607,-2.0925323963165283,-17.461511611938477
1675156300941209000,6.583208984375,0.31603461503982544,-2.4851813316345215,-19.039291381835938
1675156300961210400,6.60321044921875,-0.05506663769483566,0.4381389021873474,-21.330541610717773
1675156300981211600,6.623211669921875,0.4405331015586853,2.075772762298584,-20.296245574951172
1675156301001213400,6.64321337890625,-0.4405331015586853,2.3056161403656006,-12.220304489135742
1675156301021214700,6.663214599609375,-3.335123062133789,1.558625340461731,4.469974517822266
1675156301041215500,6.683215576171875,-5.911583423614502,1.314416766166687,1.4963760375976562
1675156301061215700,6.7032158203125,-0.4381389021873474,-4.4292731285095215,6.237194538116455
1675156301081215700,6.7232158203125,6.924330711364746,-7.9945387840271,4.400542736053467
1675156301101215700,6.7432158203125,1.6352397203445435,-4.292803764343262,-8.174103736877441
1675156301121215700,6.7632158203125,-2.38462495803833,0.1867477297782898,-13.606547355651855
1675156301141215700,6.7832158203125,-1.0630255937576294,3.7397429943084717,-15.912463188171387
1675156301161215700,6.8032158203125,-1.8124107122421265,2.3535003662109375,-11.502044677734375
1675156301181215700,6.8232158203125,-2.1715409755706787,0.4429273009300232,-8.382399559020996
1675156301201215700,6.8432158203125,-1.9393033981323242,0.7805097699165344,-9.52922248840332
1675156301221215700,6.8632158203125,-1.6903064250946045,0.9672574996948242,-9.933841705322266
1675156301241215700,6.8832158203125,-2.1715409755706787,0.9648633003234863,-9.723152160644531
1675156301261215700,6.9032158203125,-2.2577321529388428,0.9768342971801758,-9.720758438110352
1675156301281215700,6.9232158203125,-1.5610195398330688,0.31364041566848755,-10.252270698547363
1675156301301215700,6.9432158203125,-1.6711528301239014,0.5530605912208557,-9.964966773986816
1675156301321215700,6.9632158203125,-1.6160861253738403,1.0965443849563599,-9.241917610168457
1675156301341215700,6.9832158203125,-1.338358759880066,0.9074024558067322,-9.273042678833008
1675156301361215700,7.0032158203125,-1.3718775510787964,0.10534487664699554,-9.969755172729492
1675156301381215700,7.0232158203125,-1.1851298809051514,0.07182604819536209,-10.134955406188965
1675156301401215700,7.0432158203125,-1.2497732639312744,0.48602294921875,-9.96017837524414
1675156301421215700,7.0632158203125,-1.2737152576446533,0.8212111592292786,-9.897929191589355
1675156301441216000,7.083216064453125,-1.0869675874710083,0.569819986820221,-9.881169319152832
1675156301461216000,7.103216064453125,-0.9600749015808105,0.2944868206977844,-9.83568000793457
1675156301481216000,7.123216064453125,-1.0414776802062988,0.363918662071228,-9.873987197875977
1675156301501215700,7.1432158203125,-1.1085153818130493,0.6847416758537292,-9.936236381530762
1675156301521216000,7.163216064453125,-1.1252747774124146,0.9361328482627869,-9.98412036895752
1675156301541215700,7.1832158203125,-0.9840168952941895,0.9983820915222168,-9.955389976501465
1675156301561215700,7.2032158203125,-0.8140285611152649,0.6200982332229614,-9.92665958404541
1675156301581215700,7.2232158203125,-0.7206547260284424,0.3878606855869293,-9.881169319152832
1675156301601215700,7.2432158203125,-0.8834604024887085,0.6272808313369751,-9.792584419250488
1675156301621215700,7.2632158203125,-0.9600749015808105,0.7613561153411865,-9.866804122924805
1675156301641215700,7.2832158203125,-1.0223240852355957,0.3232172429561615,-9.878775596618652
1675156301661214500,7.30321435546875,-1.1563993692398071,0.33518823981285095,-9.897929191589355
1675156301681213200,7.323213134765625,-1.070208191871643,0.5315127968788147,-9.924264907836914
1675156301701211400,7.34321142578125,-1.0342950820922852,0.8355764150619507,-9.797372817993164
1675156301721210000,7.363210205078125,-0.9002198576927185,0.5123591423034668,-10.022427558898926
1675156301741210000,7.383210205078125,-0.9983820915222168,0.395043283700943,-10.247482299804688
1675156301761209300,7.403209228515625,-0.9457096457481384,0.3016694188117981,-10.111013412475586
1675156301781209300,7.423209228515625,-0.8667010068893433,0.35673606395721436,-9.89553451538086
1675156301801209300,7.443209228515625,-0.8236053586006165,0.24181437492370605,-9.783007621765137
1675156301821209300,7.463209228515625,-0.706289529800415,0.14365209639072418,-9.814131736755371
1675156301841208800,7.483208740234375,-0.6751648783683777,0.2082955539226532,-9.905111312866211
1675156301861208600,7.50320849609375,-0.629675030708313,0.26336219906806946,-9.890746116638184
1675156301881208800,7.523208740234375,-0.5793967843055725,0.2992752194404602,-9.809343338012695
1675156301901208800,7.543208740234375,-0.47165772318840027,0.37828385829925537,-9.749488830566406
1675156301921208800,7.563208740234375,-0.4213795065879822,0.3519476354122162,-9.878775596618652
1675156301941208600,7.58320849609375,-0.363918662071228,0.38546648621559143,-9.998485565185547
1675156301961210000,7.603210205078125,-0.45250412821769714,0.4118026793003082,-9.845256805419922
1675156301981211400,7.62321142578125,-0.5315127968788147,0.507570743560791,-9.857227325439453
1675156302001213000,7.643212890625,-0.6607996821403503,0.5985504388809204,-9.9865140914917
1675156302021214200,7.663214111328125,-0.6775590777397156,0.6033388376235962,-10.010457038879395
1675156302041214200,7.683214111328125,-0.828393816947937,0.6991068720817566,-9.991303443908691
1675156302061215200,7.70321533203125,-0.7445967197418213,0.7493851184844971,-9.778219223022461
1675156302081215200,7.72321533203125,-0.7469909191131592,0.5482721924781799,-9.703998565673828
1675156302101215200,7.74321533203125,-0.7182605266571045,0.49320554733276367,-9.876380920410156
1675156302121215200,7.76321533203125,-0.8236053586006165,0.6272808313369751,-9.873987197875977
1675156302141215700,7.7832158203125,-0.6248866319656372,0.45489832758903503,-9.80455493927002
1675156302161215700,7.8032158203125,-0.47884035110473633,0.47884035110473633,-9.756670951843262
1675156302181215700,7.8232158203125,-0.3447650372982025,0.3256114423274994,-9.787796020507812
1675156302201215700,7.8432158203125,-0.33518823981285095,0.19153612852096558,-9.862015724182129
1675156302221215700,7.8632158203125,-0.16998831927776337,0.05746084079146385,-9.952995300292969
1675156302241215700,7.8832158203125,-0.19393034279346466,0.2992752194404602,-9.996091842651367
1675156302261215700,7.9032158203125,-0.19632454216480255,0.3447650372982025,-9.792584419250488
1675156302281215700,7.9232158203125,-0.14365209639072418,0.31842881441116333,-9.797372817993164
1675156302301215700,7.9432158203125,-0.035913024097681046,0.26815059781074524,-9.924264907836914
1675156302321215700,7.9632158203125,-0.15083470940589905,0.2777273952960968,-10.005668640136719
1675156302341215700,7.9832158203125,-0.2992752194404602,0.31124621629714966,-9.936236381530762
1675156302361215700,8.0032158203125,-0.22266076505184174,0.29209262132644653,-9.909899711608887
1675156302381215700,8.0232158203125,-0.2106897532939911,0.3519476354122162,-9.914688110351562
1675156302401215700,8.0432158203125,-0.20350714027881622,0.363918662071228,-9.902717590332031
1675156302421215700,8.0632158203125,-0.07661445438861847,0.3280056416988373,-9.933841705322266
1675156302441215700,8.0832158203125,-0.09576806426048279,0.2992752194404602,-9.878775596618652
1675156302461215700,8.1032158203125,-0.1388636976480484,0.2082955539226532,-9.878775596618652
1675156302481215700,8.1232158203125,-0.13168109953403473,0.16998831927776337,-9.897929191589355
1675156302501215700,8.1432158203125,-0.06464344263076782,0.31364041566848755,-9.976937294006348
1675156302521215700,8.1632158203125,-0.05506663769483566,0.0694318488240242,-9.909899711608887
1675156302541215700,8.1832158203125,-0.05506663769483566,0.090979665517807,-9.907505989074707
1675156302561215700,8.2032158203125,-0.07182604819536209,0.2346317619085312,-9.852438926696777
1675156302581215700,8.2232158203125,-0.014365210197865963,0.21308395266532898,-9.857227325439453
1675156302601215700,8.2432158203125,-0.004788403399288654,0.20111294090747833,-9.821314811706543
1675156302621215700,8.2632158203125,-0.002394201699644327,0.11971008777618408,-9.857227325439453
1675156302641215700,8.2832158203125,-0.014365210197865963,0.10295066982507706,-9.991303443908691
1675156302661215000,8.303215087890624,0.004788403399288654,0.1412578970193863,-9.92905330657959
1675156302681213400,8.32321337890625,-0.090979665517807,0.2537853717803955,-9.92665958404541
1675156302701212000,8.3432119140625,-0.17238251864910126,0.3016694188117981,-9.92905330657959
1675156302721210400,8.36321044921875,-0.15083470940589905,0.15083470940589905,-9.85962200164795
1675156302741210400,8.38321044921875,-0.1149216815829277,0.21308395266532898,-9.797372817993164
1675156302761209000,8.403208984375,-0.035913024097681046,0.28969839215278625,-9.830891609191895
1675156302781209000,8.423208984375,0.0071826050989329815,0.20350714027881622,-9.842862129211426
1675156302801209000,8.443208984375,-0.026336219161748886,0.21547815203666687,-9.952995300292969
1675156302821209000,8.463208984375,-0.05027823522686958,0.22505496442317963,-9.919476509094238
1675156302841209000,8.483208984375,-0.08619125932455063,0.2801215946674347,-9.931447982788086
1675156302861209000,8.503208984375,-0.07900865375995636,0.2059013396501541,-9.919476509094238
1675156302881209000,8.523208984375,-0.0694318488240242,0.08858546614646912,-9.907505989074707
1675156302901209000,8.543208984375,-0.16519992053508759,0.12928688526153564,-10.020033836364746
1675156302921209000,8.563208984375,-0.1412578970193863,0.1364694982767105,-10.0487642288208
1675156302941209000,8.583208984375,-0.1412578970193863,0.19153612852096558,-9.976937294006348
1675156302961210000,8.603210205078126,-0.17717093229293823,0.2585737705230713,-9.931447982788086
1675156302981211600,8.623211669921876,-0.1604115068912506,0.2944868206977844,-9.955389976501465
1675156303001213200,8.643213134765626,-0.10295066982507706,0.2777273952960968,-9.945813179016113
1675156303021214500,8.66321435546875,-0.14844051003456116,0.47405192255973816,-9.998485565185547
1675156303041214500,8.68321435546875,-0.16998831927776337,0.47884035110473633,-10.05115795135498
1675156303061215700,8.7032158203125,-0.17238251864910126,0.06464344263076782,-10.010457038879395
1675156303081215700,8.7232158203125,-0.2777273952960968,0.181959331035614,-9.921871185302734
1675156303101215700,8.7432158203125,-0.12928688526153564,0.35913026332855225,-9.902717590332031
1675156303121215700,8.7632158203125,-0.038307227194309235,0.3758896589279175,-9.85962200164795
1675156303141215700,8.7832158203125,-0.17956513166427612,0.3663128614425659,-9.873987197875977
1675156303161215700,8.8032158203125,-0.16519992053508759,0.2777273952960968,-9.9865140914917
1675156303181215700,8.8232158203125,-0.20111294090747833,0.14604631066322327,-10.027215957641602
1675156303201215700,8.8432158203125,-0.19632454216480255,0.1867477297782898,-10.000880241394043
1675156303221215700,8.8632158203125,-0.16759411990642548,0.2537853717803955,-9.881169319152832
1675156303241215700,8.8832158203125,-0.15322890877723694,0.26815059781074524,-9.890746116638184
1675156303261215700,8.9032158203125,-0.15801730751991272,0.21787235140800476,-10.027215957641602
1675156303281215700,8.9232158203125,-0.2059013396501541,0.181959331035614,-10.043975830078125
1675156303301215700,8.9432158203125,-0.1604115068912506,0.26336219906806946,-9.948206901550293
1675156303321215700,8.9632158203125,-0.1388636976480484,0.272938996553421,-9.833285331726074
1675156303341215700,8.9832158203125,-0.13168109953403473,0.20350714027881622,-9.809343338012695
1675156303361215700,9.0032158203125,-0.10295066982507706,0.13407529890537262,-9.917082786560059
1675156303381215700,9.0232158203125,-0.1843535304069519,0.1412578970193863,-9.969755172729492
1675156303401215700,9.0432158203125,-0.22266076505184174,0.11013327538967133,-10.058341026306152
1675156303421215700,9.0632158203125,-0.2298433631658554,0.2082955539226532,-9.9865140914917
1675156303441215700,9.0832158203125,-0.23942017555236816,0.24899697303771973,-9.866804122924805
1675156303461215700,9.1032158203125,-0.2777273952960968,0.3208230137825012,-9.840468406677246
1675156303481215700,9.1232158203125,-0.23942017555236816,0.38067805767059326,-9.921871185302734
1675156303501215700,9.1432158203125,-0.16519992053508759,0.1843535304069519,-10.010457038879395
1675156303521215700,9.1632158203125,-0.33279404044151306,0.5195417404174805,-10.005668640136719
1675156303541215700,9.1832158203125,0.08140286058187485,0.2777273952960968,-9.759065628051758
1675156303561215700,9.2032158203125,-0.19871874153614044,0.1867477297782898,-9.80216121673584
1675156303581215700,9.2232158203125,-0.3232172429561615,0.42856210470199585,-9.98412036895752
1675156303601215700,9.2432158203125,-0.16759411990642548,0.11252748221158981,-9.85962200164795
1675156303621215700,9.2632158203125,-0.1388636976480484,-0.11971008777618408,-9.96017837524414
1675156303641215700,9.2832158203125,-0.2777273952960968,-0.05746084079146385,-10.094253540039062
1675156303661214500,9.30321435546875,-0.2992752194404602,0.009576806798577309,-9.96257209777832
1675156303681213700,9.323213623046875,-0.3232172429561615,0.24420857429504395,-9.799766540527344
1675156303701212000,9.3432119140625,-0.3016694188117981,0.395043283700943,-9.739912033081055
1675156303721211000,9.3632109375,-0.40940847992897034,0.4141969084739685,-9.763854026794434
1675156303741211000,9.3832109375,-0.37828385829925537,0.4141969084739685,-10.022427558898926
1675156303761209600,9.403209716796875,-0.3208230137825012,0.272938996553421,-10.058341026306152
1675156303781209600,9.423209716796874,-0.2825157940387726,0.12928688526153564,-9.993697166442871
1675156303801209600,9.443209716796876,-0.13407529890537262,0.031124621629714966,-10.029610633850098
1675156303821209600,9.463209716796875,-0.08858546614646912,0.11252748221158981,-9.885957717895508
1675156303841209600,9.483209716796875,-0.16519992053508759,0.2059013396501541,-9.715970039367676
1675156303861209600,9.503209716796874,-0.31364041566848755,0.2825157940387726,-9.845256805419922
1675156303881209600,9.523209716796876,-0.2753331959247589,0.10295066982507706,-10.010457038879395
1675156303901209600,9.543209716796875,-0.2849099934101105,-0.24420857429504395,-10.036792755126953
1675156303921209600,9.563209716796875,-0.395043283700943,-0.004788403399288654,-9.991303443908691
1675156303941209600,9.583209716796874,-0.44771572947502136,0.15801730751991272,-10.113407135009766
1675156303961211000,9.6032109375,-0.3926490843296051,0.21787235140800476,-10.178050994873047
1675156303981211400,9.62321142578125,-0.36152446269989014,0.37828385829925537,-10.16368579864502
1675156304001213200,9.643213134765626,-0.1843535304069519,0.2825157940387726,-10.005668640136719
1675156304021214500,9.66321435546875,-0.11252748221158981,-0.08619125932455063,-9.96017837524414
1675156304041214500,9.68321435546875,-0.002394201699644327,-0.011971008032560349,-10.012850761413574
1675156304061215500,9.703215576171875,-0.009576806798577309,0.4405331015586853,-9.85962200164795
1675156304081215700,9.7232158203125,0.20350714027881622,0.5602431893348694,-9.706393241882324
1675156304101215700,9.7432158203125,0.06464344263076782,0.7326257228851318,-9.8691987991333
1675156304121215700,9.7632158203125,0.15322890877723694,0.5003881454467773,-10.07270622253418
1675156304141215700,9.7832158203125,0.26815059781074524,0.17238251864910126,-9.912294387817383
1675156304161215700,9.8032158203125,0.17956513166427612,0.2537853717803955,-9.797372817993164
1675156304181215700,9.8232158203125,0.07661445438861847,0.6607996821403503,-9.821314811706543
1675156304201215700,9.8432158203125,0.08858546614646912,0.3974374830722809,-10.07270622253418
1675156304221215700,9.8632158203125,-0.1628057211637497,0.24899697303771973,-10.16368579864502
1675156304241215700,9.8832158203125,-0.08619125932455063,0.42377370595932007,-10.03918743133545
1675156304261074000,9.903073974609375,0.1628057211637497,0.38546648621559143,-9.950601577758789
1675156304281074000,9.923073974609375,0,0.17717093229293823,-10.10622501373291
1675156304301074000,9.943073974609375,-0.08619125932455063,-0.1388636976480484,-10.084676742553711
1675156304321074000,9.963073974609374,-0.2801215946674347,0.090979665517807,-9.797372817993164
1675156304341074000,9.983073974609376,-0.11971008777618408,0.08140286058187485,-9.723152160644531
1675156304361074000,10.003073974609375,-0.028730420395731926,0.33279404044151306,-9.816526412963867
1675156304381073700,10.02307373046875,0.08858546614646912,0.2561795711517334,-9.972148895263672
1675156304401074000,10.043073974609374,0.2346317619085312,0.21787235140800476,-10.082283020019531
1675156304421074000,10.063073974609376,0.17956513166427612,0.1149216815829277,-10.065523147583008
1675156304441074000,10.083073974609375,0.2992752194404602,0.011971008032560349,-10.079888343811035
1675156304461074000,10.103073974609375,0.2825157940387726,-0.08619125932455063,-10.087071418762207
1675156304481074000,10.123073974609374,0.2968810200691223,-0.1843535304069519,-10.010457038879395
1675156304501074000,10.143073974609376,0.24181437492370605,-0.05746084079146385,-9.92665958404541
1675156304521074000,10.163073974609375,0.22026655077934265,0.2322375625371933,-10.036792755126953
1675156304541074000,10.183073974609375,0.3878606855869293,0.17477671802043915,-9.720758438110352
1675156304561074000,10.203073974609374,0.3902548849582672,0.2513911724090576,-9.524434089660645
1675156304581073700,10.22307373046875,0.4620809257030487,0.7015010714530945,-9.708786964416504
1675156304601074000,10.243073974609375,0.5386953949928284,0.6847416758537292,-9.785401344299316
1675156304621073700,10.26307373046875,0.5530605912208557,0.3734954595565796,-9.826103210449219
1675156304641074000,10.283073974609374,0.2849099934101105,0.4189853072166443,-9.696816444396973
1675156304661072400,10.303072265625,0.33758243918418884,0.31842881441116333,-9.761459350585938
1675156304681070800,10.32307080078125,0.272938996553421,-0.24660277366638184,-9.787796020507812
1675156304701069300,10.3430693359375,0.3256114423274994,-0.2753331959247589,-9.706393241882324
1675156304721034800,10.36303466796875,0.35913026332855225,-0.3663128614425659,-9.771036148071289
1675156304740967700,10.3829677734375,0.47165772318840027,-0.5003881454467773,-9.905111312866211
1675156304760901000,10.402901123046876,0.4165911078453064,-0.4668693244457245,-9.957783699035645
1675156304780834300,10.422834228515624,0.4405331015586853,-0.33758243918418884,-10.118195533752441
1675156304800767700,10.442767822265624,0.45010992884635925,-0.40701428055763245,-10.154109001159668
1675156304820701200,10.462701171875,0.5961562395095825,-0.42616790533065796,-10.000880241394043
1675156304840634600,10.482634521484375,0.6177040338516235,-0.4189853072166443,-9.83807373046875
1675156304860567800,10.50256787109375,0.5003881454467773,-0.5051765441894531,-9.909899711608887
1675156304880501200,10.522501220703125,0.3998316824436188,-0.6512228846549988,-10.036792755126953
1675156304900434400,10.542434326171875,0.3974374830722809,-0.646434485912323,-9.902717590332031
1675156304920367900,10.562367919921876,0.33518823981285095,-0.5339069962501526,-9.845256805419922
1675156304940301000,10.582301025390626,0.20350714027881622,-0.47165772318840027,-9.988908767700195
1675156304960235800,10.60223583984375,0.1867477297782898,-0.6105214357376099,-10.182839393615723
1675156304980170800,10.622170654296875,0.1364694982767105,-0.8140285611152649,-10.3456449508667
1675156305000105700,10.642105712890626,0.24899697303771973,-0.9552865028381348,-10.278607368469238
1675156305020073500,10.662073486328126,0.3423708379268646,-0.9145850539207458,-9.948206901550293
1675156305040074000,10.682073974609375,0.2298433631658554,-0.8331822156906128,-9.778219223022461
1675156305060073700,10.70207373046875,0.15083470940589905,-0.7374141216278076,-9.866804122924805
1675156305080073700,10.72207373046875,0.15322890877723694,-0.7350199222564697,-9.924264907836914
1675156305100073700,10.74207373046875,0.05746084079146385,-0.7948749661445618,-9.907505989074707
1675156305120073700,10.76207373046875,0.14844051003456116,-0.8020575642585754,-9.62020206451416
1675156305140073700,10.78207373046875,0.016759412363171577,-0.6536170840263367,-9.610625267028809
1675156305160073700,10.80207373046875,-0.05985504388809204,-0.6392518281936646,-9.58907699584961
1675156305180073700,10.82207373046875,-0.11252748221158981,-0.7637503147125244,-9.577106475830078
1675156305200073700,10.84207373046875,0.14604631066322327,-0.9481038451194763,-9.83568000793457
1675156305220073700,10.86207373046875,0.4596867263317108,-0.35434186458587646,-10.398317337036133
1675156305240073700,10.88207373046875,0.07900865375995636,0.05506663769483566,-9.964966773986816
1675156305260073700,10.90207373046875,0.28730419278144836,-0.3663128614425659,-9.888352394104004
1675156305280073700,10.92207373046875,0.8475474119186401,-0.5291185975074768,-10.269030570983887
1675156305300073700,10.94207373046875,0.8379706144332886,-0.20350714027881622,-10.053552627563477
1675156305320073700,10.96207373046875,0.8690952062606812,-0.016759412363171577,-10.046369552612305
1675156305340073700,10.98207373046875,0.8930372595787048,-0.2801215946674347,-10.125378608703613
1675156305360073700,11.00207373046875,0.9959878921508789,-0.45489832758903503,-9.917082786560059
1675156305380073700,11.02207373046875,1.1659762859344482,-0.3926490843296051,-9.718363761901855
1675156305400073700,11.04207373046875,1.3239935636520386,-0.18914192914962769,-9.74470043182373
1675156305420073700,11.06207373046875,1.3096283674240112,-0.08379705995321274,-9.969755172729492
1675156305440073700,11.08207373046875,1.0869675874710083,0.016759412363171577,-10.144532203674316
1675156305460073700,11.10207373046875,1.1779472827911377,0.12928688526153564,-10.216358184814453
1675156305480073700,11.12207373046875,1.259350061416626,0.22744916379451752,-10.137349128723145
1675156305500073700,11.14207373046875,1.3263877630233765,0.3208230137825012,-9.914688110351562
1675156305520073700,11.16207373046875,1.37906014919281,0.2585737705230713,-9.80455493927002
1675156305540073700,11.18207373046875,1.314416766166687,0.2561795711517334,-9.675268173217773
1675156305560073700,11.20207373046875,1.2761094570159912,0.26096799969673157,-9.71357536315918
1675156305580073700,11.22207373046875,1.0869675874710083,0.08379705995321274,-9.828496932983398
1675156305600073700,11.24207373046875,0.8068459630012512,-0.023942016065120697,-9.974543571472168
1675156305620073700,11.26207373046875,0.6320692300796509,0.040701430290937424,-10.122983932495117
1675156305640073700,11.28207373046875,0.4884171485900879,0.19153612852096558,-10.060734748840332
1675156305660072400,11.302072509765624,0.17956513166427612,0.21547815203666687,-9.921871185302734
1675156305680071200,11.3220712890625,0.0694318488240242,0.35673606395721436,-9.83807373046875
1675156305700069400,11.3420693359375,0.4213795065879822,0.4429273009300232,-9.723152160644531
1675156305720068600,11.362068603515626,0.6129156351089478,0.4357447028160095,-9.605836868286133
1675156305740068000,11.382068115234375,0.871489405632019,0.47884035110473633,-9.486125946044922
1675156305760066600,11.402066650390625,1.0127472877502441,0.4620809257030487,-9.332897186279297
1675156305780066600,11.422066650390626,0.8212111592292786,0.5770025849342346,-9.38556957244873
1675156305800066600,11.442066650390625,0.5291185975074768,0.6344634294509888,-9.62020206451416
1675156305820066600,11.462066650390625,0.36152446269989014,0.395043283700943,-9.974543571472168
1675156305840065800,11.482065673828124,0.5554547905921936,0.08140286058187485,-10.149320602416992
1675156305860065800,11.502065673828126,0.6009446382522583,0.15083470940589905,-10.10861873626709
1675156305880065800,11.522065673828125,0.6009446382522583,0.38546648621559143,-10.022427558898926
1675156305900065800,11.542065673828125,0.5219359993934631,0.49799394607543945,-9.998485565185547
1675156305920065800,11.562065673828124,0.6775590777397156,0.3998316824436188,-9.909899711608887
1675156305940065800,11.582065673828126,0.950498104095459,0.4381389021873474,-9.687239646911621
1675156305960067000,11.602067138671876,0.912190854549408,0.6871358752250671,-9.648932456970215
1675156305980068600,11.622068603515626,0.8762778043746948,0.9289502501487732,-9.888352394104004
1675156306000070000,11.64206982421875,0.6224924325942993,1.0295066833496094,-9.92905330657959
1675156306020070700,11.662070556640625,0.751779317855835,0.8690952062606812,-9.692028045654297
1675156306040071200,11.6820712890625,1.0247182846069336,0.7422025203704834,-9.471760749816895
1675156306060072700,11.70207275390625,1.4915876388549805,0.629675030708313,-9.416694641113281
1675156306080072700,11.72207275390625,1.4484920501708984,0.7158663272857666,-9.22755241394043
1675156306100072700,11.74207275390625,1.1779472827911377,0.849941611289978,-9.399934768676758
1675156306120072700,11.76207275390625,1.1061211824417114,0.9481038451194763,-9.708786964416504
1675156306140073500,11.782073486328125,1.0079588890075684,1.3766659498214722,-9.378387451171875
1675156306160073500,11.802073486328124,1.05105459690094,1.7693150043487549,-8.942642211914062
1675156306180073500,11.822073486328126,0.9552865028381348,1.802833914756775,-8.626607894897461
1675156306200073500,11.842073486328125,0.5626373887062073,1.2832920551300049,-8.834903717041016
1675156306220073500,11.862073486328125,0.6057330369949341,0.9528923034667969,-9.378387451171875
1675156306240073500,11.882073486328125,1.3527239561080933,0.9313444495201111,-10.424653053283691
1675156306260073500,11.902073486328124,1.41257905960083,1.2856862545013428,-10.910676002502441
1675156306280073500,11.922073486328125,1.2832920551300049,1.9608511924743652,-10.618583679199219
1675156306300073700,11.94207373046875,1.070208191871643,2.0829553604125977,-10.460566520690918
1675156306320073700,11.96207373046875,0.7996633648872375,2.1308395862579346,-10.312126159667969
1675156306340073700,11.98207373046875,0.6177040338516235,2.094926595687866,-10.41268253326416
1675156306360073700,12.00207373046875,0.090979665517807,2.0829553604125977,-10.582671165466309
1675156306380073700,12.02207373046875,-0.6272808313369751,2.123656988143921,-10.946589469909668
1675156306400073700,12.04207373046875,-0.8858546018600464,1.4891934394836426,-11.62175464630127
1675156306420073700,12.06207373046875,-1.1779472827911377,0.8451532125473022,-12.780548095703125
1675156306440073700,12.08207373046875,-0.17717093229293823,0.8882488012313843,-13.740622520446777
1675156306460073700,12.10207373046875,-0.033518824726343155,1.0582371950149536,-12.926593780517578
1675156306480073700,12.12207373046875,-0.47884035110473633,1.4317326545715332,-12.093412399291992
1675156306500073700,12.14207373046875,-0.6799532771110535,1.6974890232086182,-10.946589469909668
1675156306520073700,12.16207373046875,-1.048660397529602,1.7764976024627686,-9.404723167419434
1675156306540073700,12.18207373046875,-0.9648633003234863,1.6208745241165161,-8.339303970336914
1675156306560073700,12.20207373046875,-1.4317326545715332,1.7190368175506592,-6.775889873504639
1675156306580073700,12.22207373046875,0.16998831927776337,1.6424223184585571,-5.344157695770264
1675156306600073700,12.24207373046875,9.785401344299316,0.011971008032560349,-7.817368030548096
1675156306620073700,12.26207373046875,4.082113742828369,-1.53707754611969,-6.941090106964111
1675156306640073700,12.28207373046875,2.9903578758239746,-0.5195417404174805,-4.266467571258545
1675156306660072400,12.302072509765624,3.8139634132385254,-1.0606313943862915,-7.470208644866943
1675156306680071000,12.32207080078125,4.110844135284424,-0.05267243832349777,-12.201150894165039
1675156306700069400,12.3420693359375,4.709394931793213,1.2234370708465576,-12.799701690673828
1675156306720067800,12.36206787109375,3.8091750144958496,1.6065093278884888,-12.270583152770996
1675156306740068000,12.382068115234375,3.315969467163086,1.1540051698684692,-14.444518089294434
1675156306760066300,12.40206640625,2.964021682739258,1.5155296325683594,-15.981894493103027
1675156306780066600,12.422066650390626,2.073378562927246,2.1547815799713135,-15.833454132080078
1675156306800066300,12.44206640625,1.139639973640442,1.8363527059555054,-15.531785011291504
1675156306820066300,12.46206640625,0.49320554733276367,1.8483237028121948,-15.416863441467285
1675156306840066000,12.482066162109374,0.8068459630012512,0.9241618514060974,-14.957176208496094
1675156306860066000,12.502066162109376,1.3072341680526733,-0.8307880163192749,-12.708722114562988
1675156306880066000,12.522066162109375,1.4939818382263184,-1.9776105880737305,-9.613018989562988
1675156306900066000,12.542066162109375,-0.05746084079146385,-2.1356279850006104,-5.648221015930176
1675156306920066000,12.562066162109375,-1.113303780555725,-1.764526605606079,-2.6791117191314697
1675156306940066000,12.582066162109374,-0.05746084079146385,-2.1116859912872314,-1.5634137392044067
1675156306960067300,12.6020673828125,0.9050082564353943,-1.8698714971542358,-0.7781155705451965
1675156306980068900,12.62206884765625,-0.7134721279144287,-2.161964178085327,1.0678139925003052
1675156307000070700,12.642070556640626,-0.021547814831137657,-2.1930887699127197,1.968033790588379
1675156307020072000,12.662072021484375,11.365574836730957,-2.425326347351074,-1.3431471586227417
1675156307040072000,12.682072021484375,0.9552865028381348,8.763077735900879,-13.142072677612305
1675156307060073500,12.702073486328125,1.9393033981323242,7.905953407287598,-13.561058044433594
1675156307080073500,12.722073486328124,5.758354187011719,0.22744916379451752,-17.937957763671875
1675156307100073500,12.742073486328126,3.6128504276275635,0.5027823448181152,-17.265186309814453
1675156307120073500,12.762073486328125,2.853888511657715,1.290474772453308,-14.12130069732666
1675156307140073700,12.78207373046875,1.1563993692398071,0.42377370595932007,-15.0170316696167
1675156307160073700,12.80207373046875,0.17717093229293823,-0.6177040338516235,-17.274763107299805
1675156307180073700,12.82207373046875,-0.8882488012313843,-2.477998733520508,-18.249204635620117
1675156307200073700,12.84207373046875,-0.9816226959228516,-3.7924153804779053,-17.988235473632812
1675156307220073700,12.86207373046875,0.9385270476341248,-2.3918075561523438,-14.365509033203125
1675156307240073700,12.88207373046875,1.1492167711257935,0.8379706144332886,-11.758223533630371
1675156307260073700,12.90207373046875,-0.47165772318840027,2.8107926845550537,-9.58668327331543
1675156307280073700,12.92207373046875,-0.12928688526153564,3.5410242080688477,-5.945102214813232
1675156307300073700,12.94207373046875,-0.6200982332229614,3.950432777404785,-2.695871114730835
1675156307320073700,12.96207373046875,0.9026140570640564,1.6424223184585571,-1.3646949529647827
1675156307340073700,12.98207373046875,2.4612393379211426,-0.5123591423034668,0.3902548849582672
1675156307360073700,13.00207373046875,1.9488801956176758,-1.256955862045288,2.516305923461914
1675156307380073700,13.02207373046875,1.601720929145813,-0.5434837937355042,3.909731388092041
1675156307400074800,13.04207470703125,3.7708675861358643,-0.06703764945268631,2.894589900970459
1675156307420074800,13.06207470703125,11.152490615844727,-1.98958158493042,-2.427720546722412
1675156307440074800,13.08207470703125,4.395754337310791,-7.036858081817627,-18.51256561279297
1675156307460074800,13.10207470703125,-0.11013327538967133,0.1628057211637497,-24.81919288635254
1675156307480074800,13.12207470703125,4.0533833503723145,11.253046989440918,-23.209989547729492
1675156307500074800,13.14207470703125,-0.3423708379268646,5.372888088226318,-15.924433708190918
1675156307520074800,13.16207470703125,-1.4772224426269531,2.5761611461639404,-18.474258422851562
1675156307540074800,13.18207470703125,-1.9800047874450684,2.7102363109588623,-20.427927017211914
1675156307560074800,13.20207470703125,-2.47560453414917,2.477998733520508,-19.520524978637695
1675156307580074800,13.22207470703125,-1.1085153818130493,1.7717092037200928,-15.740080833435059
1675156307600074800,13.24207470703125,-0.29209262132644653,0.44771572947502136,-12.818855285644531
1675156307620074800,13.26207470703125,-1.1252747774124146,-2.1547815799713135,-8.296208381652832
1675156307640074800,13.28207470703125,-0.7015010714530945,-3.3925838470458984,-4.738125324249268
1675156307660073500,13.302073486328124,0.5003881454467773,-3.2345664501190186,-3.5242648124694824
1675156307680072200,13.322072265625,2.2888567447662354,-2.363077163696289,-2.2218191623687744
1675156307700069400,13.3420693359375,1.98958158493042,-2.5713725090026855,0.3878606855869293
1675156307720069600,13.362069580078124,1.9800047874450684,-1.8315643072128296,3.335123062133789
1675156307740069600,13.382069580078126,0.5099649429321289,-0.9433154463768005,4.393360137939453
1675156307760068400,13.402068359375,-1.0295066833496094,-0.7781155705451965,4.168305397033691
1675156307780068400,13.422068359375,12.181997299194336,-0.5195417404174805,-0.3208230137825012
1675156307800068600,13.442068603515626,5.937919616699219,7.10150146484375,-8.669703483581543
1675156307820068400,13.462068359375,2.8850131034851074,14.387057304382324,-23.035213470458984
1675156307840068600,13.482068603515625,4.084507942199707,-3.0190882682800293,-26.28204917907715
1675156307860068400,13.502068359375,-1.5442601442337036,-5.787084579467773,-22.21879005432129
1675156307880068600,13.522068603515624,0.21308395266532898,-1.659181833267212,-17.83979606628418
1675156307900068400,13.542068359375,-0.11013327538967133,-1.1755530834197998,-18.443134307861328
1675156307920068600,13.562068603515625,-2.3511061668395996,-1.460463047027588,-18.658613204956055
1675156307940068400,13.582068359375,-1.5538369417190552,-1.659181833267212,-16.221315383911133
1675156307960070000,13.60206982421875,0.13407529890537262,0.5147533416748047,-13.201927185058594
1675156307980071200,13.6220712890625,-0.730231523513794,2.1787235736846924,-10.613795280456543
1675156308000073000,13.642072998046874,-1.9560627937316895,2.5498247146606445,-7.920318603515625
1675156308020072400,13.662072509765625,-2.2170307636260986,2.9017724990844727,-4.81473970413208
1675156308040072400,13.682072509765625,-0.4596867263317108,1.900996208190918,-1.0821791887283325
1675156308060073700,13.70207373046875,1.9297266006469727,1.335964560508728,0.22505496442317963
1675156308080073700,13.72207373046875,3.711012601852417,0.47644615173339844,1.3335703611373901
1675156308100073700,13.74207373046875,2.913743495941162,-0.44532153010368347,3.3423056602478027
1675156308120073700,13.76207373046875,3.912125587463379,-0.24899697303771973,4.548983097076416
1675156308140073700,13.78207373046875,9.624990463256836,-2.3127987384796143,-0.011971008032560349
1675156308160073700,13.80207373046875,5.775113582611084,-6.071994781494141,-8.054393768310547
1675156308180073700,13.82207373046875,2.209848165512085,-6.4287309646606445,-13.015179634094238
1675156308200073700,13.84207373046875,3.8163576126098633,7.443872451782227,-28.211776733398438
1675156308220073700,13.86207373046875,1.6424223184585571,12.44536018371582,-29.789554595947266
1675156308240073700,13.88207373046875,-2.056619167327881,3.7660791873931885,-17.85416030883789
1675156308260073700,13.90207373046875,-2.557007312774658,4.331110954284668,-20.255544662475586
1675156308280073700,13.92207373046875,-2.006340980529785,3.8977603912353516,-20.928316116333008
1675156308300073700,13.94207373046875,-2.2625205516815186,1.7142484188079834,-16.03217315673828
1675156308320073700,13.96207373046875,-0.8212111592292786,-0.10055647045373917,-13.685556411743164
1675156308340073700,13.98207373046875,-2.410961151123047,-1.8962076902389526,-13.11334228515625
1675156308360073700,14.00207373046875,-0.9696516990661621,-2.9041666984558105,-7.913136005401611
1675156308380073700,14.02207373046875,-0.30885201692581177,-2.604891538619995,-2.408566951751709
1675156308400073200,14.0420732421875,0.4141969084739685,-2.5043349266052246,-0.7445967197418213
1675156308420073200,14.0620732421875,3.8570590019226074,-2.6839001178741455,0.5219359993934631
1675156308440073200,14.0820732421875,2.6024973392486572,-2.8107926845550537,2.2840683460235596
1675156308460073200,14.1020732421875,1.7477672100067139,-2.363077163696289,4.7620673179626465
1675156308480073200,14.1220732421875,-1.048660397529602,-1.9345149993896484,5.526116847991943
1675156308500073200,14.1420732421875,2.434903144836426,-1.0127472877502441,2.7246015071868896
1675156308520073500,14.162073486328126,18.981828689575195,0.6847416758537292,-2.978386878967285
1675156308540073500,14.182073486328125,-2.7916390895843506,14.315231323242188,-14.796765327453613
1675156308560073500,14.202073486328125,5.0592474937438965,8.547599792480469,-30.70892906188965
1675156308580073500,14.222073486328124,4.216189384460449,-10.113407135009766,-29.959543228149414
1675156308600073500,14.242073486328126,-2.978386878967285,-5.978621006011963,-18.421586990356445
1675156308620073500,14.262073486328125,0.2753331959247589,-3.4380736351013184,-17.84458351135254
1675156308640073700,14.28207373046875,-1.623268723487854,0.42616790533065796,-19.206884384155273
1675156308660072200,14.302072265625,-2.956839084625244,0.15562310814857483,-16.74564552307129
1675156308680071400,14.322071533203125,-0.5626373887062073,0.5626373887062073,-13.587393760681152
1675156308700070000,14.34206982421875,0.4620809257030487,1.821987509727478,-10.984896659851074
1675156308720068600,14.362068603515626,-0.9457096457481384,3.2106244564056396,-9.237129211425781
1675156308740068000,14.382068115234375,-3.268085241317749,3.9695863723754883,-7.175721645355225
1675156308760066600,14.402066650390625,-1.1540051698684692,1.194706678390503,-2.4851813316345215
1675156308780066000,14.422066162109376,2.030282974243164,1.0654197931289673,0.40462008118629456
1675156308800065300,14.442065185546875,3.339911460876465,1.4173674583435059,2.190694570541382
1675156308820065300,14.462065185546875,2.3942017555236816,0.5650315880775452,4.881777286529541
1675156308840064500,14.482064453125,1.1252747774124146,0.5674257874488831,6.368875980377197
1675156308860064500,14.502064453125,2.8993782997131348,0.524330198764801,4.649539470672607
1675156308880064500,14.522064453125,12.287342071533203,-2.47560453414917,-0.8978256583213806
1675156308900064500,14.542064453125,8.4015531539917,-5.325003623962402,-11.363180160522461
1675156308920064500,14.562064453125,3.160346269607544,-10.209175109863281,-22.6353816986084
1675156308940064300,14.582064208984375,0.7493851184844971,14.219463348388672,-34.52798080444336
1675156308960065800,14.602065673828125,1.482010841369629,8.806173324584961,-23.693618774414062
1675156308980066600,14.622066650390625,-2.896984100341797,2.231395959854126,-14.42297077178955
1675156309000068400,14.642068359375,-1.7597382068634033,3.6750996112823486,-20.40637969970703
1675156309020069600,14.662069580078125,-2.473210334777832,2.9017724990844727,-19.06083869934082
1675156309040070400,14.6820703125,-2.2361843585968018,0.8858546018600464,-14.983512878417969
1675156309060072000,14.702072021484375,-1.1324573755264282,-1.4077905416488647,-12.682385444641113
1675156309080072200,14.722072265625,-2.868253707885742,-0.8020575642585754,-11.72470474243164
1675156309100073200,14.7420732421875,-0.9265560507774353,-0.42377370595932007,-5.72244119644165
1675156309120073200,14.7620732421875,0.3423708379268646,-2.319981336593628,-1.7693150043487549
1675156309140073700,14.78207373046875,2.868253707885742,-3.4332852363586426,0.05746084079146385
1675156309160073700,14.80207373046875,4.1180267333984375,-4.333505153656006,1.6304513216018677
1675156309180073700,14.82207373046875,3.383007049560547,-2.5977089405059814,3.7708675861358643
1675156309200073700,14.84207373046875,0.7948749661445618,-2.0853497982025146,5.368099689483643
1675156309220073700,14.86207373046875,4.292803764343262,-2.4396915435791016,2.494758129119873
1675156309240073700,14.88207373046875,14.166790962219238,-0.5554547905921936,-2.647987127304077
1675156309260073700,14.90207373046875,-1.5825673341751099,10.704774856567383,-8.478167533874512
1675156309280073700,14.92207373046875,5.054459095001221,11.6337251663208,-28.812721252441406
1675156309300073700,14.94207373046875,4.4077253341674805,-5.935525417327881,-31.417612075805664
1675156309320073700,14.96207373046875,-3.6128504276275635,-4.201824188232422,-17.832612991333008
1675156309340073700,14.98207373046875,-0.4836287498474121,-1.4460978507995605,-15.99865436553955
1675156309360073700,15.00207373046875,-0.5363011956214905,0.033518824726343155,-18.672977447509766
1675156309380073700,15.02207373046875,-2.537853717803955,-0.6057330369949341,-17.60276985168457
1675156309400073700,15.04207373046875,-1.4173674583435059,-1.2210428714752197,-14.619295120239258
1675156309420073700,15.06207373046875,-0.6272808313369751,-0.47884035110473633,-12.6273193359375
1675156309440073700,15.08207373046875,-1.2066776752471924,1.4197616577148438,-9.909899711608887
1675156309460073700,15.10207373046875,-2.4396915435791016,3.3710360527038574,-7.340921878814697
1675156309480073700,15.12207373046875,-1.6831238269805908,3.071760892868042,-3.378218650817871
1675156309500073700,15.14207373046875,0.9768342971801758,1.800439715385437,-0.21547815203666687
1675156309520073700,15.16207373046875,3.88818359375,1.403002142906189,0.933738648891449
1675156309540073700,15.18207373046875,4.829104900360107,-0.06464344263076782,2.983175277709961
1675156309560073700,15.20207373046875,2.1284453868865967,-0.3208230137825012,5.238812446594238
1675156309580073700,15.22207373046875,3.8522706031799316,-0.19393034279346466,4.745307922363281
1675156309600073700,15.24207373046875,9.67766284942627,-3.2824504375457764,-0.16759411990642548
1675156309620073700,15.26207373046875,4.958691120147705,-6.620266914367676,-11.406275749206543
1675156309640073700,15.28207373046875,4.961085319519043,-7.961019992828369,-19.73360824584961
1675156309660072400,15.302072509765624,2.164358377456665,17.334619522094727,-34.41545104980469
1675156309680071700,15.32207177734375,0.6536170840263367,10.788572311401367,-28.147132873535156
1675156309700070000,15.34206982421875,-3.469198226928711,2.5498247146606445,-16.1470947265625
1675156309720068600,15.362068603515626,-1.8531121015548706,3.399766445159912,-19.288288116455078
1675156309740068000,15.382068115234375,-1.6663644313812256,2.9544448852539062,-18.21089744567871
1675156309760066300,15.40206640625,-2.126051187515259,1.292868971824646,-14.602535247802734
1675156309780066600,15.422066650390626,-1.3934253454208374,-1.1635819673538208,-12.66323184967041
1675156309800066300,15.44206640625,-3.2417490482330322,-0.8906430602073669,-9.268254280090332
1675156309820066300,15.46206640625,-0.17717093229293823,-0.950498104095459,-3.3901896476745605
1675156309840066300,15.48206640625,-0.3471592366695404,-2.209848165512085,-1.0654197931289673
1675156309860066300,15.50206640625,2.693476915359497,-3.840299606323242,0.569819986820221
1675156309880066300,15.52206640625,4.278438568115234,-4.73573112487793,1.8938134908676147
1675156309900066300,15.54206640625,2.513911724090576,-2.671929121017456,3.7876269817352295
1675156309920066300,15.56206640625,-0.9696516990661621,-2.6216509342193604,5.042488098144531
1675156309940066600,15.582066650390624,-0.5123591423034668,-2.5450363159179688,2.8586769104003906
1675156309960067600,15.602067626953126,17.040132522583008,-3.177105665206909,-2.782062292098999
1675156309980068400,15.622068359375,2.3535003662109375,8.006509780883789,-6.5388641357421875
1675156310000070100,15.642070068359375,4.393360137939453,18.866907119750977,-32.198123931884766
1675156310020071400,15.662071533203125,5.3920416831970215,-4.72376012802124,-33.21326446533203
1675156310040072200,15.682072265625,-4.54419469833374,-5.863699436187744,-19.520524978637695
1675156310060073700,15.70207373046875,0.4596867263317108,-3.4811692237854004,-15.677831649780273
1675156310080073700,15.72207373046875,-0.7876923680305481,-0.4836287498474121,-18.910003662109375
1675156310100073700,15.74207373046875,-2.980781078338623,0.5674257874488831,-17.193361282348633
1675156310120073700,15.76207373046875,-1.9105730056762695,0.1173158809542656,-13.45331859588623
1675156310140073700,15.78207373046875,-0.1628057211637497,-0.44532153010368347,-10.755053520202637
1675156310160073700,15.80207373046875,-1.6304513216018677,1.6711528301239014,-9.126996040344238
1675156310180073700,15.82207373046875,-3.2106244564056396,3.421314239501953,-6.091148376464844
1675156310200073700,15.84207373046875,-0.8475474119186401,2.3487119674682617,-1.6543933153152466
1675156310220073700,15.86207373046875,2.827552318572998,0.7565677165985107,0.33997663855552673
1675156310240073700,15.88207373046875,5.404012680053711,-0.2298433631658554,1.9512743949890137
1675156310260073700,15.90207373046875,3.4141316413879395,-0.24181437492370605,4.592078685760498
1675156310280073700,15.92207373046875,1.1444283723831177,1.1085153818130493,6.03847599029541
1675156310300073700,15.94207373046875,7.929895401000977,-0.1412578970193863,2.942473888397217
1675156310320073700,15.96207373046875,15.969923973083496,-3.045424461364746,-3.711012601852417
1675156310340073700,15.98207373046875,1.280897855758667,-7.920318603515625,-15.309123992919922
1675156310360073700,16.00207373046875,-2.3511061668395996,0.4189853072166443,-28.925249099731445
1675156310380073700,16.02207373046875,1.845929503440857,22.745513916015625,-41.085697174072266
1675156310400073700,16.04207373046875,-1.3766659498214722,4.213795185089111,-17.475875854492188
1675156310420073700,16.06207373046875,-3.028665065765381,0.5315127968788147,-14.957176208496094
1675156310440073700,16.08207373046875,-1.2018892765045166,3.0095114707946777,-20.669742584228516
1675156310460073700,16.10207373046875,-1.8770540952682495,2.8419175148010254,-16.276382446289062
1675156310480073700,16.12207373046875,-1.158793568611145,1.1061211824417114,-13.941736221313477
1675156310500073700,16.14207373046875,-4.165910720825195,1.048660397529602,-11.403882026672363
1675156310520073700,16.16207373046875,-1.8507179021835327,0.8786720037460327,-6.651391506195068
1675156310540073700,16.18207373046875,-1.015141487121582,-1.7118542194366455,-1.6328455209732056
1675156310560073500,16.202073486328125,2.31758713722229,-3.2417490482330322,-0.4620809257030487
1675156310580073700,16.22207373046875,3.931279182434082,-5.241206645965576,0.7374141216278076
1675156310600073700,16.24207373046875,4.620809078216553,-3.222595453262329,2.5953147411346436
1675156310620073700,16.26207373046875,1.965639591217041,-1.9105730056762695,4.968267917633057
1675156310640073500,16.282073486328127,1.9297266006469727,-2.3032219409942627,4.355052947998047
1675156310660072200,16.302072265625,13.233052253723145,-1.8842366933822632,-0.8188169598579407
1675156310680071700,16.32207177734375,-1.534683346748352,7.240365028381348,-3.1004912853240967
1675156310700070000,16.34206982421875,3.1890766620635986,14.478036880493164,-18.917186737060547
1675156310720070100,16.362070068359376,5.636250019073486,-3.952826976776123,-39.32835388183594
1675156310740070000,16.38206982421875,-2.4396915435791016,-11.669638633728027,-25.238178253173828
1675156310760070700,16.402070556640624,-0.3208230137825012,-4.534617900848389,-15.287576675415039
1675156310780070400,16.4220703125,-0.31364041566848755,-1.4077905416488647,-17.813459396362305
1675156310800070400,16.4420703125,-2.698265314102173,0.8786720037460327,-17.918804168701172
1675156310820070400,16.4620703125,-2.075772762298584,1.656787633895874,-14.683938026428223
1675156310840070400,16.4820703125,-1.048660397529602,2.051830768585205,-11.664850234985352
1675156310860070400,16.5020703125,-0.4644751250743866,3.093308687210083,-9.071929931640625
1675156310880070400,16.5220703125,-2.5977089405059814,3.5482068061828613,-6.984185695648193
1675156310900070400,16.5420703125,-2.5713725090026855,2.5737667083740234,-3.507505416870117
1675156310920070400,16.5620703125,0.608127236366272,0.8451532125473022,0.33518823981285095
1675156310940070400,16.5820703125,4.333505153656006,1.6519991159439087,1.6160861253738403
1675156310960071700,16.60207177734375,4.757278919219971,1.2449848651885986,3.5194764137268066
1675156310980072400,16.622072509765626,0.17477671802043915,1.6328455209732056,5.133467674255371
1675156311000074000,16.642073974609374,1.6879122257232666,2.070984363555908,4.687847137451172
1675156311020074200,16.66207421875,12.742240905761719,-0.5554547905921936,-0.9911994934082031
1675156311040074200,16.68207421875,7.41753625869751,-5.681739807128906,-16.738462448120117
1675156311060073700,16.70207373046875,0.2082955539226532,-11.095029830932617,-22.743120193481445
1675156311080073700,16.72207373046875,4.311957359313965,16.805500030517578,-37.54706954956055
1675156311100074000,16.742073974609376,0.14365209639072418,11.858779907226562,-23.310546875
1675156311120074000,16.762073974609375,-3.4093432426452637,2.032677173614502,-12.241852760314941
1675156311140073700,16.78207373046875,-0.3711012601852417,0.8164227604866028,-18.63706398010254
1675156311160073700,16.80207373046875,-1.3742717504501343,1.2832920551300049,-19.67375373840332
1675156311180073700,16.82207373046875,-1.98958158493042,0.9720458984375,-14.616900444030762
1675156311200073700,16.84207373046875,-2.1930887699127197,-0.6943184733390808,-12.715904235839844
1675156311220073700,16.86207373046875,-3.8714241981506348,1.036689281463623,-9.172486305236816
1675156311240073700,16.88207373046875,-1.0630255937576294,-0.9313444495201111,-2.918531894683838
1675156311260073700,16.90207373046875,-0.6560112833976746,-2.2170307636260986,-0.3232172429561615
1675156311280073700,16.92207373046875,3.227383852005005,-4.9922099113464355,0.6823474764823914
1675156311300073700,16.94207373046875,5.006575107574463,-5.083189487457275,1.359906554222107
1675156311320073500,16.962073486328126,4.216189384460449,-2.231395959854126,2.7222073078155518
1675156311340073500,16.982073486328126,-0.2322375625371933,-1.6855180263519287,4.685452938079834
1675156311360073500,17.002073486328126,4.343081951141357,-2.80361008644104,1.8339585065841675
1675156311380073500,17.022073486328125,17.377714157104492,-2.6384103298187256,-2.9520506858825684
1675156311400073500,17.042073486328125,-0.3878606855869293,11.626543045043945,-7.302614688873291
1675156311420073500,17.062073486328124,4.2975921630859375,15.179837226867676,-32.032920837402344
1675156311440073200,17.0820732421875,4.886565685272217,-11.820472717285156,-35.9477424621582
1675156311460073200,17.1020732421875,-2.4396915435791016,-7.870040416717529,-19.43912124633789
1675156311480073200,17.1220732421875,0.5817909836769104,-4.606443881988525,-13.211503982543945
1675156311500073200,17.1420732421875,-1.2258312702178955,0.3016694188117981,-18.378490447998047
1675156311520073200,17.1620732421875,-2.2433669567108154,1.6615760326385498,-16.776769638061523
1675156311540073200,17.1820732421875,-1.556231141090393,1.3670891523361206,-12.567463874816895
1675156311560073200,17.2020732421875,-1.1228805780410767,2.470816135406494,-9.833285331726074
1675156311580073200,17.2220732421875,-2.229001760482788,3.44765043258667,-8.798990249633789
1675156311600073200,17.2420732421875,-3.220201253890991,3.0310592651367188,-6.131849765777588
1675156311620073200,17.2620732421875,-0.7326257228851318,1.3646949529647827,-2.5546131134033203
1675156311640073200,17.2820732421875,2.123656988143921,1.6759412288665771,-0.21308395266532898
1675156311660072000,17.302072021484374,5.799055576324463,1.8818424940109253,1.6304513216018677
1675156311680071000,17.32207080078125,4.4939165115356445,1.4987702369689941,3.6966474056243896
1675156311700069400,17.3420693359375,0.33279404044151306,1.7142484188079834,5.562029838562012
1675156311720068000,17.362068115234376,1.436521053314209,0.689530074596405,4.58968448638916
1675156311740068400,17.382068359375,9.419088363647461,-2.343923568725586,-0.6224924325942993
1675156311760067000,17.402067138671875,9.833285331726074,-5.164592266082764,-12.031163215637207
1675156311780066800,17.42206689453125,2.719813108444214,-8.86602783203125,-20.739173889160156
1675156311800066800,17.44206689453125,-0.5674257874488831,14.696208953857422,-42.230125427246094
1675156311820066800,17.46206689453125,-2.5019407272338867,10.427047729492188,-25.80320930480957
1675156311840066800,17.48206689453125,-3.069366693496704,3.1747114658355713,-13.393463134765625
1675156311860066800,17.50206689453125,-1.7477672100067139,2.3798365592956543,-19.43672752380371
1675156311880066800,17.52206689453125,-3.584120035171509,2.7988216876983643,-18.39285659790039
1675156311900066800,17.54206689453125,-3.0621838569641113,1.4413094520568848,-14.485219955444336
1675156311920066800,17.56206689453125,-1.8746598958969116,-1.9608511924743652,-11.140520095825195
1675156311940066800,17.58206689453125,-4.426878929138184,-1.6735470294952393,-9.306561470031738
1675156311960068000,17.602068115234374,1.0654197931289673,-1.292868971824646,-4.841075897216797
1675156311980068900,17.62206884765625,3.117250680923462,-4.07014274597168,-1.3192051649093628
1675156312000070700,17.642070556640626,3.821146011352539,-4.082113742828369,0.038307227194309235
1675156312020071700,17.66207177734375,3.914519786834717,-3.3470940589904785,2.7700912952423096
1675156312040072000,17.682072021484377,2.1045033931732178,-2.2673089504241943,5.526116847991943
1675156312060073200,17.7020732421875,0.7254431247711182,-3.19865345954895,5.581183433532715
1675156312080073500,17.722073486328124,10.565911293029785,-4.474762916564941,-0.009576806798577309
1675156312100073500,17.742073486328124,7.309797286987305,1.0582371950149536,-3.4620156288146973
1675156312120073500,17.762073486328124,-3.026270866394043,13.664008140563965,-13.78371810913086
1675156312140073500,17.782073486328127,6.763918876647949,6.742371082305908,-39.558197021484375
1675156312160073500,17.802073486328126,-0.871489405632019,-10.86518669128418,-29.01383399963379
1675156312180073500,17.822073486328126,-2.250549554824829,-4.728548526763916,-16.9395751953125
1675156312200073700,17.84207373046875,-0.7422025203704834,-0.5626373887062073,-15.996259689331055
1675156312220073500,17.862073486328125,-0.9672574996948242,1.05105459690094,-18.21089744567871
1675156312240073700,17.88207373046875,-2.075772762298584,-0.4189853072166443,-15.663466453552246
1675156312260073500,17.902073486328124,-0.9672574996948242,0.038307227194309235,-12.567463874816895
1675156312280073700,17.92207373046875,-0.9672574996948242,2.0254945755004883,-9.718363761901855
1675156312300073500,17.942073486328123,-1.886630892753601,3.1316158771514893,-7.680898189544678
1675156312320073500,17.962073486328126,-2.1715409755706787,3.976768970489502,-5.454290866851807
1675156312340073500,17.982073486328126,-0.2825157940387726,2.1571757793426514,-2.1571757793426514
1675156312360073700,18.00207373046875,2.2625205516815186,0.8331822156906128,-0.05027823522686958
1675156312380073500,18.022073486328125,5.399224281311035,-0.4357447028160095,2.1164743900299072
1675156312400073500,18.042073486328125,4.793191909790039,-1.4484920501708984,3.7229835987091064
1675156312420073500,18.062073486328124,3.6774938106536865,-1.4963760375976562,4.146757125854492
1675156312440073700,18.08207373046875,9.912294387817383,-2.734178304672241,0.5961562395095825
1675156312460073500,18.102073486328123,3.4189200401306152,-4.534617900848389,-5.837363243103027
1675156312480073500,18.122073486328127,3.9624037742614746,-5.121496677398682,-12.7853364944458
1675156312500073500,18.142073486328126,5.645826816558838,6.033687591552734,-31.551687240600586
1675156312520073700,18.16207373046875,-1.3335703611373901,19.43912124633789,-39.75691604614258
1675156312540073700,18.18207373046875,-1.0606313943862915,3.6511576175689697,-14.255375862121582
1675156312560073700,18.20207373046875,-1.5298948287963867,4.1395745277404785,-17.210121154785156
1675156312580073700,18.22207373046875,-1.680729627609253,4.165910720825195,-20.387226104736328
1675156312600073500,18.242073486328124,-2.075772762298584,2.051830768585205,-15.680225372314453
1675156312620073500,18.262073486328124,-1.3862427473068237,-0.3423708379268646,-12.814066886901855
1675156312640073500,18.282073486328127,-2.0661959648132324,-2.1356279850006104,-11.4541597366333
1675156312660072700,18.30207275390625,-0.9720458984375,-1.1180921792984009,-5.952284812927246
1675156312680071400,18.322071533203125,0.019153613597154617,-2.410961151123047,-1.5897499322891235
1675156312700069600,18.342069580078125,1.1324573755264282,-2.6671407222747803,0.9696516990661621
1675156312720068900,18.36206884765625,3.845088005065918,-4.702212333679199,2.2409727573394775
1675156312740068400,18.382068359375,2.942473888397217,-3.2968156337738037,3.2417490482330322
1675156312760066800,18.40206689453125,0.8667010068893433,-2.2649147510528564,4.961085319519043
1675156312780066800,18.42206689453125,-1.6136919260025024,-2.3295583724975586,4.177882194519043
1675156312800067000,18.442067138671874,9.938630104064941,-3.9264907836914062,-0.5147533416748047
1675156312820066800,18.46206689453125,13.90582275390625,0.9097966551780701,-3.7900211811065674
1675156312840066300,18.48206640625,1.6519991159439087,18.907609939575195,-20.971410751342773
1675156312860066300,18.50206640625,7.142202854156494,11.305719375610352,-39.40018081665039
1675156312880065300,18.522065185546875,0.7589619159698486,-11.394305229187012,-22.300193786621094
1675156312900065500,18.5420654296875,0.3734954595565796,-4.501099109649658,-14.530709266662598
1675156312920065500,18.5620654296875,1.8818424940109253,-3.138798475265503,-18.81423568725586
1675156312940065500,18.5820654296875,-1.5514427423477173,-0.9816226959228516,-19.321805953979492
1675156312960066300,18.60206640625,-2.2697031497955322,-0.4644751250743866,-15.457564353942871
1675156312980067600,18.622067626953125,-1.1492167711257935,-0.16759411990642548,-12.682385444641113
1675156313000069400,18.6420693359375,-0.5554547905921936,0.5913678407669067,-10.56112289428711
1675156313020070100,18.662070068359377,-1.216254472732544,2.0685901641845703,-8.7175874710083
1675156313040070700,18.682070556640625,-2.1284453868865967,2.9735984802246094,-5.997774600982666
1675156313060072000,18.702072021484376,-0.8044517636299133,0.811634361743927,-1.580173134803772
1675156313080072000,18.722072021484376,1.3742717504501343,1.1420341730117798,0.7374141216278076
1675156313100072000,18.742072021484375,4.577713489532471,1.3886369466781616,2.806004285812378
1675156313120071400,18.762071533203127,4.7836151123046875,0.6871358752250671,4.264073371887207
1675156313140072200,18.782072265625,0.9433154463768005,0.8355764150619507,4.572925090789795
1675156313160072200,18.802072265625,8.087912559509277,0.043095629662275314,2.2409727573394775
1675156313180073200,18.8220732421875,13.968071937561035,-2.183511972427368,-3.2106244564056396
1675156313200073200,18.8420732421875,3.7014358043670654,-7.474997043609619,-14.521132469177246
1675156313220073000,18.862072998046877,1.8986018896102905,-1.359906554222107,-28.372188568115234
1675156313240073200,18.8820732421875,1.4460978507995605,21.538837432861328,-45.977352142333984
1675156313260073200,18.9020732421875,-1.3646949529647827,4.367023944854736,-15.32348918914795
1675156313280073200,18.9220732421875,-1.338358759880066,1.2832920551300049,-14.93802261352539
1675156313300073200,18.9420732421875,-0.9265560507774353,4.0749311447143555,-21.409549713134766
1675156313320073200,18.9620732421875,-2.4013843536376953,3.292027235031128,-15.9890775680542
1675156313340073200,18.9820732421875,-0.8786720037460327,0.5746083855628967,-13.644854545593262
1675156313360073500,19.002073486328126,-2.580949544906616,-0.38307225704193115,-11.499650001525879
1675156313380073500,19.022073486328125,-0.17717093229293823,-0.6560112833976746,-5.765536785125732
1675156313400073500,19.042073486328125,0.2585737705230713,-2.6455929279327393,-1.534683346748352
1675156313420074000,19.062073974609376,2.6671407222747803,-2.894589900970459,-0.2968810200691223
1675156313440074000,19.082073974609376,3.6535518169403076,-3.555389642715454,0.7422025203704834
1675156313460074000,19.102073974609375,3.141192674636841,-2.3056161403656006,3.114856481552124
1675156313480074000,19.122073974609375,0.6847416758537292,-1.314416766166687,5.425560474395752
1675156313500074000,19.142073974609374,-2.4684219360351562,-1.7501614093780518,5.1023430824279785
1675156313520074000,19.162073974609374,10.848426818847656,-4.034229755401611,-0.9361328482627869
1675156313540074000,19.182073974609374,12.917016983032227,1.7142484188079834,-3.665522813796997
1675156313560074000,19.202073974609377,1.8746598958969116,19.149423599243164,-25.116073608398438
1675156313580074000,19.222073974609376,7.261912822723389,2.2170307636260986,-40.43447494506836
1675156313600074000,19.242073974609376,-0.706289529800415,-12.316072463989258,-23.62179183959961
1675156313620074000,19.262073974609375,-0.8307880163192749,-4.671087741851807,-14.899715423583984
1675156313640074000,19.282073974609375,2.049436569213867,-2.8826189041137695,-16.74803924560547
1675156313660072400,19.302072509765626,-0.5171475410461426,0.11013327538967133,-18.502988815307617
1675156313680071200,19.3220712890625,-2.2864625453948975,0.7015010714530945,-15.50305461883545
1675156313700069400,19.3420693359375,-1.6424223184585571,1.8626888990402222,-11.571475982666016
1675156313720069400,19.3620693359375,-2.389413356781006,2.607285737991333,-9.237129211425781
1675156313740069400,19.3820693359375,-2.9927520751953125,2.47560453414917,-6.668150901794434
1675156313760069000,19.402069091796875,-1.742978811264038,2.094926595687866,-3.5936968326568604
1675156313780068600,19.422068603515626,0.040701430290937424,1.6687586307525635,-0.6392518281936646
1675156313800068600,19.442068603515626,3.4787750244140625,1.6496049165725708,1.3766659498214722
1675156313820068600,19.462068603515625,5.72244119644165,0.5578489899635315,3.1052796840667725
1675156313840068600,19.482068603515625,1.8483237028121948,0.3878606855869293,4.6040496826171875
1675156313860068000,19.502068115234376,-0.2082955539226532,0.3447650372982025,5.0592474937438965
1675156313880067800,19.52206787109375,6.213252544403076,-0.507570743560791,1.4700398445129395
1675156313900068000,19.542068115234375,19.826982498168945,-0.7565677165985107,-5.846940040588379
1675156313920068000,19.562068115234375,4.838681697845459,-11.516409873962402,-19.85810661315918
1675156313940068000,19.582068115234375,-2.5929205417633057,-6.7806782722473145,-28.22135353088379
1675156313960069000,19.602069091796874,1.3096283674240112,24.735395431518555,-42.105628967285156
1675156313980070400,19.6220703125,-2.5546131134033203,6.014533996582031,-14.451701164245605
1675156314000072200,19.642072265625,-1.6639702320098877,3.090914487838745,-15.237298011779785
1675156314020072200,19.662072265625,-1.338358759880066,3.1651346683502197,-19.23322105407715
1675156314040072200,19.682072265625,-2.4875755310058594,1.98958158493042,-16.058509826660156
1675156314060072400,19.702072509765625,-1.4652514457702637,-0.43335050344467163,-13.324031829833984
1675156314080072700,19.72207275390625,-3.090914487838745,0.033518824726343155,-9.976937294006348
1675156314100072700,19.74207275390625,0.05985504388809204,-0.44771572947502136,-4.747702121734619
1675156314120072700,19.76207275390625,0.6584054827690125,-2.013523578643799,-1.6136919260025024
1675156314140072700,19.78207275390625,2.0805611610412598,-2.346317768096924,0.10773907601833344
1675156314160074200,19.80207421875,2.2170307636260986,-3.7612907886505127,2.051830768585205
1675156314180074000,19.822073974609374,3.1483752727508545,-2.43011474609375,3.31118106842041
1675156314200074000,19.842073974609374,1.1252747774124146,-1.5322890281677246,4.331110954284668
1675156314220074000,19.862073974609373,9.244312286376953,-2.779668092727661,1.3335703611373901
1675156314240074000,19.882073974609376,7.970596790313721,0.3471592366695404,-1.2186486721038818
1675156314260074000,19.902073974609376,0.45010992884635925,8.298602104187012,-9.404723167419434
1675156314280074000,19.922073974609376,8.5811185836792,8.068758964538574,-38.18871307373047
1675156314299907800,19.941907958984373,2.1116859912872314,-5.286696434020996,-34.158973693847656
1675156314319907800,19.961907958984376,-1.0319008827209473,-3.711012601852417,-16.853384017944336
1675156314339907800,19.981907958984376,0.16519992053508759,-2.3726539611816406,-14.150031089782715
1675156314359907800,20.001907958984376,0.028730420395731926,-0.7398083209991455,-19.159000396728516
1675156314379908000,20.021908203125,-1.381454348564148,-0.26575639843940735,-17.013795852661133
1675156314399908000,20.041908203125,-1.7310078144073486,-0.44771572947502136,-13.680768013000488
1675156314419908000,20.061908203125,-1.5298948287963867,0.16759411990642548,-9.96017837524414
1675156314439908000,20.081908203125,-1.9369091987609863,1.900996208190918,-7.810185432434082
1675156314459907000,20.101906982421873,-2.80361008644104,3.141192674636841,-5.133467674255371
1675156314479907300,20.1219072265625,-1.05105459690094,2.1930887699127197,-2.1308395862579346
1675156314499907300,20.1419072265625,1.460463047027588,1.5634137392044067,0.090979665517807
1675156314519907600,20.161907470703124,4.333505153656006,0.6871358752250671,1.8914192914962769
1675156314539907600,20.181907470703123,4.412513732910156,-0.2944868206977844,3.4308910369873047
1675156314559907600,20.201907470703127,1.161187767982483,-0.304063618183136,4.2951979637146
1675156314579907300,20.2219072265625,5.799055576324463,-0.6392518281936646,2.585737943649292
1675156314599907600,20.241907470703126,15.732897758483887,-2.1811177730560303,-2.959233283996582
1675156314619907600,20.261907470703125,2.7246015071868896,-7.6641387939453125,-14.592958450317383
1675156314639907300,20.2819072265625,1.4532804489135742,-4.8937482833862305,-20.008941650390625
1675156314659906800,20.30190673828125,3.426102638244629,19.59235191345215,-39.46003341674805
1675156314679905500,20.321905517578124,-1.6543933153152466,8.86363410949707,-21.093515396118164
1675156314699903700,20.34190380859375,-3.1004912853240967,3.069366693496704,-13.5778169631958
1675156314719903700,20.36190380859375,-0.9768342971801758,4.350264549255371,-20.107105255126953
1675156314739903200,20.3819033203125,-2.6671407222747803,2.913743495941162,-16.88211441040039
1675156314759902500,20.40190234375,-2.1715409755706787,0.646434485912323,-13.539509773254395
1675156314779902200,20.421902099609376,-2.3726539611816406,-2.0446481704711914,-11.6552734375
1675156314799902500,20.44190234375,-2.387019157409668,-0.304063618183136,-8.327332496643066
1675156314819902500,20.46190234375,-0.047884032130241394,-1.335964560508728,-3.7229835987091064
1675156314839902500,20.48190234375,1.139639973640442,-1.7262194156646729,-0.7326257228851318
1675156314859902200,20.501902099609374,2.5546131134033203,-3.552995204925537,1.2401964664459229
1675156314879902500,20.52190234375,3.35667085647583,-3.687070608139038,2.832340717315674
1675156314899902500,20.54190234375,1.7908629179000854,-1.5610195398330688,4.153939723968506
1675156314919902500,20.56190234375,-1.3862427473068237,-1.3096283674240112,4.716577529907227
1675156314939902500,20.58190234375,11.035175323486328,-2.5522189140319824,-0.272938996553421
1675156314959903000,20.601903076171876,8.583512306213379,1.2234370708465576,-2.6144683361053467
1675156314979904300,20.621904296875,2.4803929328918457,13.671191215515137,-15.108011245727539
1675156314999906000,20.641906005859376,5.892429828643799,6.720823287963867,-39.785648345947266
1675156315019906000,20.661906005859375,0.2585737705230713,-10.884340286254883,-29.27480125427246
1675156315039906300,20.68190625,-1.3407529592514038,-5.087977886199951,-16.08005714416504
1675156315059907300,20.7019072265625,0.9552865028381348,-3.0813376903533936,-15.167866706848145
1675156315079907300,20.7219072265625,-0.026336219161748886,-0.9959878921508789,-19.077598571777344
1675156315099907300,20.7419072265625,-1.723825216293335,-0.9026140570640564,-16.57086944580078
1675156315119907300,20.7619072265625,-1.2761094570159912,-0.5482721924781799,-12.972084045410156
1675156315139907300,20.7819072265625,-1.37906014919281,1.1683704853057861,-9.976937294006348
1675156315159907300,20.8019072265625,-2.0015525817871094,3.421314239501953,-7.635408401489258
1675156315179907300,20.8219072265625,-2.1523873805999756,3.2992098331451416,-4.197035789489746
1675156315199907300,20.8419072265625,0.10295066982507706,1.3718775510787964,-0.9648633003234863
1675156315219907300,20.8619072265625,2.942473888397217,1.6879122257232666,0.7852981686592102
1675156315239907300,20.8819072265625,5.858911037445068,0.27054479718208313,3.1004912853240967
1675156315259907300,20.9019072265625,3.2752678394317627,-0.38546648621559143,4.709394931793213
1675156315279907300,20.9219072265625,2.250549554824829,0.014365210197865963,5.0807952880859375
1675156315299907300,20.9419072265625,10.491691589355469,-1.86508309841156,0.6272808313369751
1675156315319907300,20.9619072265625,8.102277755737305,-3.5434184074401855,-7.19248104095459
1675156315339907300,20.9819072265625,4.455609321594238,-7.384017467498779,-16.590023040771484
1675156315359907600,21.001907470703124,2.248155355453491,7.879617214202881,-36.24701690673828
1675156315379907300,21.0219072265625,-2.5953147411346436,16.549320220947266,-35.45214080810547
1675156315399907300,21.0419072265625,-3.643975019454956,4.316745758056641,-13.103765487670898
1675156315419907300,21.0619072265625,-1.2114660739898682,3.5889084339141846,-16.499042510986328
1675156315439907300,21.0819072265625,-2.2625205516815186,4.6040496826171875,-19.159000396728516
1675156315459907300,21.1019072265625,-2.6599581241607666,2.2888567447662354,-15.57009220123291
1675156315479907300,21.1219072265625,-1.0223240852355957,-1.86508309841156,-13.072640419006348
1675156315499907300,21.1419072265625,-2.2601263523101807,-3.023876667022705,-10.000880241394043
1675156315519907300,21.1619072265625,1.2114660739898682,-0.8810662031173706,-4.129997730255127
1675156315539907300,21.1819072265625,1.7621324062347412,-2.47560453414917,-1.6759412288665771
1675156315559907300,21.2019072265625,2.470816135406494,-2.4827871322631836,0.7206547260284424
1675156315579907300,21.2219072265625,3.251325845718384,-3.6343982219696045,3.35667085647583
1675156315599907300,21.2419072265625,2.5474305152893066,-2.6360161304473877,5.42795467376709
1675156315619907300,21.2619072265625,-1.6687586307525635,-1.6376339197158813,6.232406139373779
1675156315639907300,21.2819072265625,1.41257905960083,-1.6160861253738403,2.7892448902130127
1675156315659906000,21.301906005859376,19.747974395751953,-3.801992416381836,-2.671929121017456
1675156315679905300,21.3219052734375,-0.033518824726343155,8.95461368560791,-7.592312812805176
1675156315699903500,21.341903564453126,7.6641387939453125,15.74965763092041,-38.77289962768555
1675156315719902200,21.361902099609374,2.4612393379211426,-6.586748123168945,-34.036869049072266
1675156315739902000,21.38190185546875,-1.659181833267212,-6.127061367034912,-18.182167053222656
1675156315759900700,21.401900634765624,0.10055647045373917,-4.4077253341674805,-15.632341384887695
1675156315779901000,21.42190087890625,0.9840168952941895,-1.5921441316604614,-18.56284523010254
1675156315799901000,21.44190087890625,-1.4173674583435059,-0.40940847992897034,-16.716915130615234
1675156315819901000,21.46190087890625,-2.032677173614502,0.47405192255973816,-13.175591468811035
1675156315839901000,21.48190087890625,-1.161187767982483,1.4508862495422363,-9.787796020507812
1675156315859900200,21.501900146484374,-1.4221558570861816,2.2361843585968018,-7.714416980743408
1675156315879900200,21.521900146484374,-1.7094600200653076,2.8371291160583496,-4.9060187339782715
1675156315899900200,21.541900146484377,-0.17477671802043915,2.118868589401245,-2.0805611610412598
1675156315919900200,21.561900146484376,2.6408045291900635,1.6304513216018677,0.11013327538967133
1675156315939900200,21.581900146484376,5.736806392669678,0.5961562395095825,1.625662922859192
1675156315959901400,21.6019013671875,3.536235809326172,-0.5482721924781799,3.2297780513763428
1675156315979902200,21.621902099609375,0.912190854549408,-0.028730420395731926,4.220977783203125
1675156315999904000,21.641904052734375,7.798214435577393,-0.7182605266571045,1.9967641830444336
1675156316019905300,21.6619052734375,17.497425079345703,-1.4963760375976562,-4.4077253341674805
1675156316039905500,21.681905517578127,2.9065608978271484,-7.759906768798828,-14.353538513183594
1675156316059906800,21.70190673828125,1.8722656965255737,0.608127236366272,-28.216564178466797
1675156316079906800,21.72190673828125,0.3687070608139038,22.309770584106445,-44.282257080078125
1675156316099906600,21.741906494140625,-2.0159177780151367,5.061641693115234,-16.068086624145508
1675156316119906800,21.76190673828125,-0.8259995579719543,2.8419175148010254,-15.443199157714844
1675156316139906600,21.781906494140625,-1.7405846118927002,4.596867084503174,-20.27709197998047
1675156316159907300,21.8019072265625,-2.734178304672241,3.1866824626922607,-15.871761322021484
1675156316179907300,21.8219072265625,-1.2042834758758545,-0.19632454216480255,-13.426982879638672
1675156316199907300,21.8419072265625,-3.359065055847168,-1.7573440074920654,-11.578659057617188
1675156316219907300,21.8619072265625,-0.44771572947502136,-1.4772224426269531,-6.0312933921813965
1675156316239907300,21.8819072265625,0.29209262132644653,-3.5625722408294678,-1.742978811264038
1675156316259907300,21.9019072265625,2.647987127304077,-3.488351821899414,0.023942016065120697
1675156316279907300,21.9219072265625,3.265691041946411,-4.937143325805664,1.723825216293335
1675156316299907300,21.9419072265625,3.60566782951355,-2.827552318572998,3.380612850189209
1675156316319907300,21.9619072265625,0.5770025849342346,-1.4077905416488647,5.801449775695801
1675156316339907300,21.9819072265625,-2.63362193107605,-1.278503656387329,5.188534259796143
1675156316359907300,22.0019072265625,5.291484832763672,-2.054224967956543,0.4381389021873474
1675156316379907300,22.0219072265625,25.580549240112305,-3.9647979736328125,-4.69024133682251
1675156316399907300,22.0419072265625,3.318363666534424,17.72487449645996,-19.467851638793945
1675156316419907300,22.0619072265625,3.8379054069519043,16.068086624145508,-39.49834442138672
1675156316439907600,22.081907470703126,0.4165911078453064,-12.861950874328613,-25.25733184814453
1675156316459907300,22.1019072265625,-0.3902548849582672,-6.328174591064453,-17.04731559753418
1675156316479907300,22.1219072265625,2.3774423599243164,-2.655169725418091,-18.74480438232422
1675156316499907300,22.1419072265625,-0.22026655077934265,-1.2258312702178955,-19.18773078918457
1675156316519907300,22.1619072265625,-1.4700398445129395,-0.8882488012313843,-15.696985244750977
1675156316539907300,22.1819072265625,-1.534683346748352,0.11252748221158981,-12.98884391784668
1675156316559907300,22.2019072265625,-0.9624691009521484,1.3958195447921753,-10.111013412475586
1675156316579907300,22.2219072265625,-1.6352397203445435,2.564189910888672,-7.247547626495361
1675156316599907300,22.2419072265625,-1.9752163887023926,3.205836057662964,-3.7229835987091064
1675156316619907300,22.2619072265625,0.21308395266532898,1.4269442558288574,-0.4189853072166443
1675156316639907300,22.2819072265625,2.559401512145996,0.9864110946655273,1.2066776752471924
1675156316659906000,22.301906005859376,4.271255970001221,-0.3926490843296051,3.1292216777801514
1675156316679904800,22.32190478515625,2.3080103397369385,-0.7326257228851318,4.67827033996582
1675156316699903000,22.341903076171874,-0.1867477297782898,0.021547814831137657,5.20289945602417
1675156316719901700,22.361901611328125,8.085518836975098,-0.5961562395095825,2.118868589401245
1675156316739901000,22.38190087890625,19.096752166748047,-0.3734954595565796,-4.869806289672852
1675156316759899400,22.4018994140625,3.1459810733795166,-7.611466407775879,-17.887680053710938
1675156316779899400,22.4218994140625,-0.26815059781074524,-4.903624534606934,-27.962779998779297
1675156316799899400,22.4418994140625,0.3926490843296051,22.621015548706055,-43.266815185546875
1675156316819899400,22.4618994140625,-2.10210919380188,5.052064895629883,-16.254833221435547
1675156316839899400,22.4818994140625,0.3519476354122162,1.6974890232086182,-15.167866706848145
1675156316859899000,22.50189892578125,-1.01753568649292,4.268861770629883,-20.64101219177246
1675156316879898600,22.521898681640625,-2.0901381969451904,3.294421434402466,-16.56129264831543
1675156316899898600,22.541898681640625,-0.7134721279144287,0.3878606855869293,-13.798083305358887
1675156316919898600,22.561898681640624,-2.7485435009002686,-0.9840168952941895,-11.265018463134766
1675156316939898400,22.5818984375,-0.6344634294509888,-0.24899697303771973,-6.021716594696045
1675156316959900000,22.60189990234375,0.12689268589019775,-1.3503297567367554,-1.6663644313812256
1675156316979901200,22.621901123046875,2.056619167327881,-1.6352397203445435,0.011971008032560349
1675156316999902700,22.64190283203125,2.6216509342193604,-3.445256233215332,1.7334020137786865
1675156317019904300,22.661904296875,3.141192674636841,-2.9161376953125,3.507505416870117
1675156317039904800,22.68190478515625,0.6272808313369751,-2.1930887699127197,5.389647483825684
1675156317059906300,22.70190625,-3.2848446369171143,-2.0231003761291504,5.2364182472229
1675156317079906300,22.72190625,6.747159481048584,-2.655169725418091,-0.1364694982767105
1675156317099906300,22.74190625,20.004154205322266,-3.5697548389434814,-4.5154643058776855
1675156317119906300,22.76190625,2.5785553455352783,13.69273853302002,-14.878168106079102
1675156317139906300,22.78190625,4.702212333679199,14.77761173248291,-40.30997848510742
1675156317159907000,22.801906982421876,1.1444283723831177,-10.939406394958496,-27.905319213867188
1675156317179907300,22.8219072265625,-0.8331822156906128,-3.3854012489318848,-16.31468963623047
1675156317199907300,22.8419072265625,2.2888567447662354,-2.5282769203186035,-16.82704734802246
1675156317219907300,22.8619072265625,0.24660277366638184,-2.1045033931732178,-19.142240524291992
1675156317239907300,22.8819072265625,-1.821987509727478,-0.9792284965515137,-16.183008193969727
1675156317259907300,22.9019072265625,-1.1683704853057861,0.7637503147125244,-12.603377342224121
1675156317279907300,22.9219072265625,-1.7549498081207275,2.3989901542663574,-9.668086051940918
1675156317299907300,22.9419072265625,-2.094926595687866,2.87064790725708,-6.53646993637085
1675156317319907300,22.9619072265625,-1.764526605606079,2.801215887069702,-3.8331170082092285
1675156317339907300,22.9819072265625,0.3902548849582672,1.1563993692398071,-1.1013327836990356
1675156317359907300,23.0019072265625,3.028665065765381,0.5123591423034668,0.2944868206977844
1675156317379907300,23.0219072265625,4.656722068786621,-0.2561795711517334,2.229001760482788
1675156317399907300,23.0419072265625,1.4460978507995605,-0.6224924325942993,3.993528366088867
1675156317419907300,23.0619072265625,0.28969839215278625,0.05746084079146385,4.642356872558594
1675156317439907300,23.0819072265625,11.346421241760254,-0.8619126081466675,1.094150185585022
1675156317459907300,23.1019072265625,16.647483825683594,-2.1715409755706787,-6.723217487335205
1675156317479907300,23.1219072265625,2.5665841102600098,-8.063970565795898,-15.584457397460938
1675156317499907300,23.1419072265625,0.05985504388809204,2.188300371170044,-28.379369735717773
1675156317519907300,23.1619072265625,-1.070208191871643,17.583616256713867,-39.479190826416016
1675156317539907300,23.1819072265625,-2.6168625354766846,3.514688014984131,-15.5126314163208
1675156317559907300,23.2019072265625,0.5602431893348694,2.363077163696289,-16.901268005371094
1675156317579907300,23.2219072265625,-1.6160861253738403,4.10366153717041,-19.563621520996094
1675156317599907300,23.2419072265625,-2.0661959648132324,2.7748796939849854,-15.969923973083496
1675156317619907300,23.2619072265625,-0.7972691655158997,-0.031124621629714966,-13.350367546081543
1675156317639907300,23.2819072265625,-2.4660277366638184,-1.6424223184585571,-10.93461799621582
1675156317659906600,23.301906494140624,-1.381454348564148,0.2944868206977844,-5.775113582611084
1675156317679905000,23.321905029296875,0.4381389021873474,-1.1683704853057861,-1.3551181554794312
1675156317699903500,23.341903564453126,1.4867992401123047,-1.3120225667953491,0.40940847992897034
1675156317719902200,23.361902099609374,2.786850690841675,-3.754108190536499,1.8986018896102905
1675156317739901400,23.3819013671875,2.628833532333374,-2.8203697204589844,2.9065608978271484
1675156317759900000,23.40189990234375,0.2082955539226532,-1.5442601442337036,4.491522312164307
1675156317779900000,23.42189990234375,6.323386192321777,-3.0334534645080566,2.4612393379211426
1675156317799900000,23.44189990234375,12.531551361083984,-2.6623523235321045,-1.4484920501708984
1675156317819900200,23.461900146484375,-0.22505496442317963,7.884405612945557,-6.84053373336792
1675156317839899400,23.4818994140625,10.659285545349121,10.963348388671875,-33.814208984375
1675156317859899400,23.5018994140625,3.292027235031128,-2.583343744277954,-35.08343505859375
1675156317879899400,23.5218994140625,-0.23702596127986908,-3.581725835800171,-16.805500030517578
1675156317899899400,23.5418994140625,1.3407529592514038,-2.4660277366638184,-12.495637893676758
1675156317919899400,23.5618994140625,0.6655880808830261,-1.1516109704971313,-18.802265167236328
1675156317939899400,23.5818994140625,-0.8188169598579407,-1.1635819673538208,-18.08639907836914
1675156317959900200,23.601900146484375,-0.9552865028381348,-0.3998316824436188,-14.252982139587402
1675156317979901700,23.621901611328123,-0.9983820915222168,0.7541735172271729,-10.695198059082031
1675156317999903200,23.6419033203125,-0.7038952708244324,2.0015525817871094,-8.04002857208252
1675156318019904500,23.661904541015623,-1.2545616626739502,2.434903144836426,-5.729623794555664
1675156318039905300,23.6819052734375,-0.9648633003234863,1.8770540952682495,-2.983175277709961
1675156318059906800,23.70190673828125,0.6177040338516235,1.1252747774124146,-0.43095630407333374
1675156318079906800,23.72190673828125,3.4787750244140625,0.38307225704193115,1.5107412338256836
1675156318099906800,23.74190673828125,4.108449935913086,-0.6177040338516235,3.1459810733795166
1675156318119906800,23.76190673828125,0.031124621629714966,-0.8044517636299133,4.2760443687438965
1675156318139907300,23.7819072265625,2.655169725418091,0.31842881441116333,3.4548330307006836
1675156318159907300,23.8019072265625,17.18617820739746,1.9153614044189453,-2.3750481605529785
1675156318179907300,23.8219072265625,3.339911460876465,-6.158185958862305,-14.061446189880371
1675156318199907300,23.8419072265625,2.3702597618103027,-6.007351398468018,-22.927474975585938
1675156318219907300,23.8619072265625,4.273650169372559,19.68572425842285,-42.34983825683594
1675156318239907300,23.8819072265625,-1.6328455209732056,7.503727436065674,-19.43672752380371
1675156318259907300,23.9019072265625,-1.359906554222107,2.6216509342193604,-13.448530197143555
1675156318279907300,23.9219072265625,-0.031124621629714966,3.361459255218506,-20.260334014892578
1675156318299907300,23.9419072265625,-2.056619167327881,2.913743495941162,-17.571645736694336
1675156318319907000,23.961906982421876,-1.0271124839782715,0.706289529800415,-14.35832691192627
1675156318339907000,23.981906982421876,-3.3518824577331543,-0.9911994934082031,-12.17481517791748
1675156318359907000,24.001906982421875,-2.365471363067627,-0.13168109953403473,-7.963414192199707
1675156318379907000,24.021906982421875,-0.8259995579719543,-1.556231141090393,-3.3877954483032227
1675156318399907000,24.041906982421875,0.9074024558067322,-1.6184803247451782,-1.359906554222107
1675156318419907000,24.061906982421874,3.2178070545196533,-3.825934410095215,0.5027823448181152
1675156318439907000,24.081906982421874,3.6822822093963623,-3.9193081855773926,2.161964178085327
1675156318459907000,24.101906982421873,2.96162748336792,-1.8914192914962769,3.909731388092041
1675156318479906600,24.121906494140624,2.5306711196899414,-2.382230758666992,4.608838081359863
1675156318499906600,24.141906494140624,11.542745590209961,-3.098097085952759,0.06464344263076782
1675156318519906600,24.161906494140624,-0.42616790533065796,4.843470096588135,-1.680729627609253
1675156318539906600,24.181906494140627,5.46147346496582,9.237129211425781,-11.324872970581055
1675156318559906600,24.201906494140626,8.98813247680664,5.530905246734619,-39.24455642700195
1675156318579906600,24.221906494140626,-1.3215993642807007,-7.764695167541504,-30.974685668945312
1675156318599906600,24.241906494140625,0.17717093229293823,-3.0310592651367188,-14.74409294128418
1675156318619906800,24.26190673828125,1.9967641830444336,-1.0319008827209473,-14.717756271362305
1675156318639906800,24.28190673828125,0.08858546614646912,-0.043095629662275314,-18.64185333251953
1675156318659906000,24.301906005859376,-0.8906430602073669,-0.8786720037460327,-16.728885650634766
1675156318679904500,24.321904541015623,-1.1276689767837524,-0.47165772318840027,-13.613730430603027
1675156318699903000,24.341903076171874,-0.4405331015586853,0.8571242094039917,-10.020033836364746
1675156318719901700,24.361901611328125,-0.828393816947937,2.322375535964966,-7.259518623352051
1675156318739901700,24.381901611328125,-1.4173674583435059,2.9233202934265137,-4.934749126434326
1675156318759900200,24.401900146484376,-0.9385270476341248,2.2146365642547607,-2.408566951751709
1675156318779900700,24.421900634765624,0.2849099934101105,0.6248866319656372,0.1604115068912506
1675156318799900700,24.441900634765624,2.346317768096924,-0.05985504388809204,2.0829553604125977
1675156318819900700,24.461900634765627,2.4181437492370605,-0.8259995579719543,3.6343982219696045
1675156318839900700,24.481900634765626,-0.667982280254364,-0.8571242094039917,4.656722068786621
1675156318859900700,24.501900634765626,7.525275230407715,0.05506663769483566,2.542642116546631
1675156318879900700,24.521900634765625,21.876419067382812,0.3064578175544739,-4.541800498962402
1675156318899900700,24.541900634765625,0.4908113479614258,-7.762300968170166,-15.20856761932373
1675156318919900700,24.561900634765625,3.713406801223755,-2.477998733520508,-25.185504913330078
1675156318939900700,24.581900634765624,2.6360161304473877,21.335329055786133,-42.75445556640625
1675156318959901700,24.601901611328124,-1.3766659498214722,4.76924991607666,-15.057732582092285
1675156318979903000,24.621903076171876,-0.016759412363171577,2.2002713680267334,-14.320019721984863
1675156318999904500,24.641904541015624,-0.29209262132644653,4.632780075073242,-19.9730281829834
1675156319019905800,24.66190576171875,-1.946485996246338,2.8419175148010254,-15.855002403259277
1675156319039905800,24.68190576171875,-1.1109095811843872,0.3016694188117981,-13.685556411743164
1675156319059907300,24.7019072265625,-1.9057846069335938,-1.6065093278884888,-11.74625301361084
1675156319079907300,24.7219072265625,-2.827552318572998,-0.17956513166427612,-7.5755534172058105
1675156319099907300,24.7419072265625,-0.05267243832349777,-1.0558429956436157,-2.229001760482788
1675156319119907300,24.7619072265625,-0.06703764945268631,-1.699883222579956,0.026336219161748886
1675156319139907300,24.7819072265625,2.7557260990142822,-4.6950297355651855,1.5705963373184204
1675156319159907300,24.8019072265625,3.5936968326568604,-4.079719543457031,2.7102363109588623
1675156319179907300,24.8219072265625,1.7046716213226318,-1.558625340461731,4.240131378173828
1675156319199907300,24.8419072265625,-1.1085153818130493,-1.3024457693099976,4.390965938568115
1675156319219907300,24.8619072265625,13.99680233001709,-4.405331134796143,-1.0295066833496094
1675156319239907300,24.8819072265625,7.302614688873291,2.738966703414917,-2.0159177780151367
1675156319259907300,24.9019072265625,2.5306711196899414,17.346590042114258,-18.294692993164062
1675156319279907300,24.9219072265625,8.851662635803223,5.973832607269287,-42.895713806152344
1675156319299907300,24.9419072265625,0.22266076505184174,-12.905046463012695,-27.129596710205078
1675156319319907300,24.9619072265625,0.7086837291717529,-5.0807952880859375,-13.972860336303711
1675156319339907300,24.9819072265625,2.013523578643799,-2.4420857429504395,-14.981118202209473
1675156319359907300,25.0019072265625,-0.35673606395721436,-0.4644751250743866,-19.348142623901367
1675156319379907600,25.021907470703123,-1.359906554222107,0.2537853717803955,-15.893309593200684
1675156319399907300,25.0419072265625,-0.6799532771110535,1.036689281463623,-12.256217956542969
1675156319419907600,25.061907470703126,-0.7757213711738586,2.2002713680267334,-9.735123634338379
1675156319439907300,25.0819072265625,-1.9177556037902832,2.513911724090576,-7.259518623352051
1675156319459907300,25.1019072265625,-1.8076223134994507,2.513911724090576,-3.77565598487854
1675156319479907300,25.1219072265625,-0.2849099934101105,1.580173134803772,-0.6177040338516235
1675156319499907300,25.1419072265625,1.6304513216018677,0.7398083209991455,1.1468225717544556
1675156319519907300,25.1619072265625,4.343081951141357,0.08858546614646912,3.1435868740081787
1675156319539907300,25.1819072265625,2.6001031398773193,-0.3423708379268646,4.331110954284668
1675156319559907300,25.2019072265625,0.08140286058187485,0.14365209639072418,4.680664539337158
1675156319579907300,25.2219072265625,9.80216121673584,-0.5746083855628967,1.1180921792984009
1675156319599907300,25.2419072265625,22.65692901611328,-2.6216509342193604,-7.204452037811279
1675156319619907300,25.2619072265625,1.2976573705673218,-10.122983932495117,-17.90683364868164
