time,seconds_elapsed,z,y,x
1676383044827350000,0.06935009765625,7.868492126464844,-5.215206146240234,1.3503209352493286
1676383044837348900,0.079348876953125,7.8808393478393555,-5.215939521789551,1.3508975505828857
1676383044847323000,0.089322998046875,7.892878532409668,-5.216617584228516,1.3513901233673096
1676383044857323500,0.099323486328125,7.905108451843262,-5.2173004150390625,1.3519692420959473
1676383044867323600,0.10932373046875,7.899874687194824,-5.217930793762207,1.3378387689590454
1676383044877323800,0.11932373046875,7.887872695922852,-5.2181854248046875,1.3226354122161865
1676383044887323600,0.12932373046875,7.8677802085876465,-5.21772575378418,1.3104609251022339
1676383044897323800,0.13932373046875,7.840066432952881,-5.216318130493164,1.3048875331878662
1676383044907324000,0.149323974609375,7.807211399078369,-5.2139739990234375,1.3073532581329346
1676383044917324000,0.159323974609375,7.773118495941162,-5.211068153381348,1.3157107830047607
1676383044927324000,0.169323974609375,7.741353988647461,-5.208015441894531,1.3270981311798096
1676383044937324000,0.179323974609375,7.712568759918213,-5.205116271972656,1.3379676342010498
1676383044947324000,0.189323974609375,7.684695243835449,-5.202301979064941,1.347201943397522
1676383044957324000,0.199323974609375,7.655540466308594,-5.199440956115723,1.3540931940078735
1676383044967324000,0.209323974609375,7.6259846687316895,-5.196658134460449,1.357999324798584
1676383044977324000,0.219323974609375,7.594437599182129,-5.193992614746094,1.3560373783111572
1676383044987324200,0.22932421875,7.556713104248047,-5.191407203674316,1.3425915241241455
1676383044997324000,0.239323974609375,7.511293411254883,-5.188816070556641,1.3147189617156982
1676383045007324000,0.249323974609375,7.458845615386963,-5.18588924407959,1.2754021883010864
1676383045017324000,0.259323974609375,7.401156425476074,-5.182246208190918,1.2300807237625122
1676383045027324000,0.269323974609375,7.344156742095947,-5.178144454956055,1.1848100423812866
1676383045037324000,0.279323974609375,7.295732021331787,-5.174460411071777,1.1413222551345825
1676383045047323000,0.289322998046875,7.2606730461120605,-5.171963691711426,1.0988976955413818
1676383045057322800,0.29932275390625,4.756844520568848,-1.2226572036743164,0.20311522483825684
1676383045067323000,0.309322998046875,4.621854782104492,-1.0627355575561523,-0.17018795013427734
1676383045077322800,0.31932275390625,4.887795448303223,-0.8947925567626953,-0.1326403021812439
1676383045087323000,0.329322998046875,5.045383453369141,-0.6871585845947266,0.20993424952030182
1676383045097322800,0.33932275390625,4.8370866775512695,-0.5781736373901367,0.9008727073669434
1676383045107323000,0.349322998046875,4.28409481048584,-0.4550323486328125,1.7694863080978394
1676383045117323000,0.359322998046875,1.9830236434936523,-0.4467754364013672,2.065904378890991
1676383045127323000,0.369322998046875,3.0012741088867188,-1.0721635818481445,2.8346641063690186
1676383045137323000,0.379322998046875,2.843306541442871,-1.2429943084716797,2.715200662612915
1676383045147323100,0.3893232421875,3.0407629013061523,-1.514815330505371,2.3178653717041016
1676383045157322200,0.399322265625,3.295886754989624,-2.1037378311157227,2.0987462997436523
1676383045167321300,0.4093212890625,3.083425998687744,-2.251976490020752,2.1701207160949707
1676383045177320400,0.419320556640625,2.547513484954834,-1.8526554107666016,2.3769211769104004
1676383045187319600,0.429319580078125,1.9807326793670654,-1.6028366088867188,2.5664563179016113
1676383045197318700,0.439318603515625,1.6826999187469482,-1.4592132568359375,2.595649242401123
1676383045207317800,0.44931787109375,1.6268048286437988,-1.3637962341308594,2.543856143951416
1676383045217316900,0.45931689453125,1.7956515550613403,-1.2608718872070312,2.374330520629883
1676383045227316000,0.46931591796875,2.337923526763916,-1.0781631469726562,2.124314546585083
1676383045237315000,0.479315185546875,3.05825138092041,-0.8224029541015625,1.8420830965042114
1676383045247314200,0.489314208984375,3.2725210189819336,-0.727198600769043,2.1577324867248535
1676383045257313300,0.499313232421875,2.97273588180542,-0.8403654098510742,2.971573829650879
1676383045267313400,0.5093134765625,2.6559534072875977,-1.3221044540405273,3.2832188606262207
1676383045277313300,0.519313232421875,2.828968048095703,-1.8257899284362793,2.7772722244262695
1676383045287313200,0.529313232421875,3.158548355102539,-2.187551498413086,2.21921443939209
1676383045297313300,0.539313232421875,3.6854143142700195,-2.2585268020629883,1.77870512008667
1676383045307313400,0.5493134765625,3.891627788543701,-1.9803051948547363,1.8170123100280762
1676383045317313300,0.559313232421875,3.994429111480713,-1.7008671760559082,2.1758267879486084
1676383045327313400,0.5693134765625,4.033063888549805,-1.400181770324707,2.333850622177124
1676383045337313300,0.579313232421875,4.051809310913086,-1.3665542602539062,2.288577079772949
1676383045347314200,0.589314208984375,3.523319721221924,-1.2290239334106445,2.616621494293213
1676383045357314300,0.599314208984375,3.207456111907959,-1.1906795501708984,3.065492630004883
1676383045367314200,0.609314208984375,2.671271324157715,-1.4118013381958008,3.336946487426758
1676383045377314300,0.619314208984375,2.2073512077331543,-1.3701467514038086,3.4786717891693115
1676383045387314200,0.629314208984375,2.120204448699951,-1.2806205749511719,3.5031189918518066
1676383045397314300,0.639314208984375,2.214531421661377,-1.1261873245239258,3.234916925430298
1676383045407314200,0.649314208984375,2.4832491874694824,-0.9855213165283203,2.850921154022217
1676383045417314300,0.659314208984375,2.58170747756958,-0.8466863632202148,2.221419334411621
1676383045427314200,0.669314208984375,2.590878486633301,-0.8535575866699219,1.6922070980072021
1676383045437314300,0.679314208984375,2.7437174320220947,-0.9705429077148438,1.6685370206832886
1676383045447314000,0.68931396484375,3.123330593109131,-0.8724784851074219,1.7832739353179932
1676383045457314800,0.699314697265625,3.4224276542663574,-0.8813762664794922,1.8401623964309692
1676383045467315700,0.709315673828125,3.5546693801879883,-0.9124307632446289,1.682187795639038
1676383045477316600,0.719316650390625,3.689945697784424,-1.1140871047973633,1.866492748260498
1676383045487317500,0.7293173828125,3.6153903007507324,-1.2975950241088867,2.4802865982055664
1676383045497318400,0.739318359375,3.029374599456787,-1.350813865661621,2.919318437576294
1676383045507319600,0.749319580078125,1.6727356910705566,-1.237894058227539,3.3506388664245605
1676383045517320400,0.759320556640625,0.5190302133560181,-0.999267578125,4.1832380294799805
1676383045527321300,0.7693212890625,0.3264850378036499,-1.2270927429199219,4.338418006896973
1676383045537322200,0.779322265625,0.722540020942688,-0.7694072723388672,4.277853965759277
1676383045547323100,0.7893232421875,1.120284914970398,-0.40213871002197266,4.177391052246094
1676383045557324000,0.799323974609375,1.352481722831726,-0.5894231796264648,4.028499603271484
1676383045567324000,0.809323974609375,1.6179072856903076,-1.1346807479858398,3.980173110961914
1676383045577324000,0.819323974609375,1.8794217109680176,-1.689054012298584,3.9691619873046875
1676383045587324000,0.829323974609375,1.9838327169418335,-1.9671897888183594,3.890204906463623
1676383045597324000,0.839323974609375,2.2449865341186523,-1.97367525100708,3.826448440551758
1676383045607324000,0.849323974609375,2.532858371734619,-1.6809978485107422,3.5959391593933105
1676383045617324000,0.859323974609375,2.8602514266967773,-1.2064313888549805,3.2242977619171143
1676383045627324000,0.869323974609375,3.2131996154785156,-1.2693500518798828,2.9041223526000977
1676383045637324000,0.879323974609375,3.545103073120117,-1.5757012367248535,2.5402848720550537
1676383045647323100,0.8893232421875,3.2630276679992676,-1.9275469779968262,2.1671905517578125
1676383045657323000,0.899322998046875,2.1901566982269287,-2.255061149597168,2.5929250717163086
1676383045667323100,0.9093232421875,1.646268367767334,-1.644606590270996,3.5997302532196045
1676383045677323000,0.919322998046875,1.4537714719772339,-0.695836067199707,4.279580116271973
1676383045687323100,0.9293232421875,1.1502082347869873,-0.09977912902832031,4.461921691894531
1676383045697323000,0.939322998046875,0.9387136697769165,-0.2599515914916992,4.134331226348877
1676383045707323100,0.9493232421875,1.2667431831359863,-0.36138248443603516,3.7308545112609863
1676383045717323000,0.959322998046875,1.749974250793457,-0.3845033645629883,3.4840922355651855
1676383045727323100,0.9693232421875,2.197770595550537,-0.481842041015625,3.3913536071777344
1676383045737323000,0.979322998046875,2.5410854816436768,-0.7605180740356445,3.539567232131958
1676383045747324000,0.989323974609375,2.599851131439209,-0.8017501831054688,3.6322643756866455
1676383045757323800,0.99932373046875,2.3702492713928223,-1.281290054321289,3.474536180496216
1676383045767324000,1.009323974609375,1.754070520401001,-1.4884023666381836,3.0861616134643555
1676383045777323800,1.01932373046875,1.499884009361267,-1.4224166870117188,2.82063627243042
1676383045787324000,1.029323974609375,1.5443553924560547,-0.9731378555297852,2.4690723419189453
1676383045797323800,1.03932373046875,1.2482776641845703,-0.9245977401733398,2.2357802391052246
1676383045807324000,1.049323974609375,0.6110888719558716,-0.7482986450195312,2.30135440826416
1676383045817324000,1.059323974609375,-0.18520578742027283,-0.7735376358032227,2.6848835945129395
1676383045827324000,1.069323974609375,-0.7114353179931641,-0.8777046203613281,3.1000607013702393
1676383045837323800,1.07932373046875,-1.0304358005523682,-0.9289941787719727,3.479100465774536
1676383045847323000,1.089322998046875,-1.3428798913955688,-1.121206283569336,3.7951693534851074
1676383045857323000,1.099322998046875,-1.4033267498016357,-1.1455669403076172,3.927359104156494
1676383045867323100,1.1093232421875,-1.1949396133422852,-1.1312885284423828,3.960217237472534
1676383045877323000,1.119322998046875,-0.8436774015426636,-0.9841423034667969,3.918982744216919
1676383045887323100,1.1293232421875,-0.36859920620918274,-0.9850358963012695,3.7193081378936768
1676383045897323000,1.139322998046875,-0.011737784370779991,-1.1122570037841797,3.1705496311187744
1676383045907323100,1.1493232421875,-0.031220190227031708,-1.2238836288452148,2.5357131958007812
1676383045917323000,1.159322998046875,-0.2739329934120178,-1.0876121520996094,2.1783576011657715
1676383045927323100,1.1693232421875,-0.5169838666915894,-0.6066875457763672,2.3547770977020264
1676383045937323000,1.179322998046875,-0.7813263535499573,-0.6580944061279297,2.5418601036071777
1676383045947324000,1.189323974609375,-1.0211817026138306,-1.1228656768798828,2.793344020843506
1676383045957324000,1.199323974609375,-0.8233768939971924,-1.532271385192871,3.129804849624634
1676383045967324000,1.209323974609375,-0.48944297432899475,-2.1873068809509277,3.4579620361328125
1676383045977324000,1.219323974609375,-0.4814274311065674,-2.6752943992614746,3.666923999786377
1676383045987324000,1.229323974609375,-0.3956625461578369,-2.6449618339538574,3.589235305786133
1676383045997324000,1.239323974609375,-0.7173492312431335,-2.1504979133605957,3.590701103210449
1676383046007324000,1.249323974609375,-0.834173321723938,-1.5670819282531738,3.008817195892334
1676383046017324000,1.259323974609375,-0.5043418407440186,-1.4492454528808594,2.474400043487549
1676383046027324000,1.269323974609375,0.058996379375457764,-1.44028902053833,1.9380581378936768
1676383046037324000,1.279323974609375,0.663918673992157,-1.6763601303100586,1.422626256942749
1676383046047323100,1.2893232421875,1.1056909561157227,-1.4180383682250977,0.9466674327850342
1676383046057323000,1.299322998046875,0.8545511364936829,-1.3136391639709473,0.6632907390594482
1676383046067323100,1.3093232421875,0.14391279220581055,-1.4003734588623047,0.8918077945709229
1676383046077323000,1.319322998046875,-0.707870364189148,-0.6518220901489258,1.0660207271575928
1676383046087323100,1.3293232421875,-0.5182230472564697,-0.7525434494018555,1.170346736907959
1676383046097323000,1.339322998046875,-0.39342522621154785,-1.4338922500610352,1.0638024806976318
1676383046107323100,1.3493232421875,-0.479172945022583,-1.4347567558288574,1.0547292232513428
1676383046117323000,1.359322998046875,-0.7421488761901855,-1.2545480728149414,1.202746868133545
1676383046127323100,1.3693232421875,-1.5873346328735352,-1.856673240661621,1.3202462196350098
1676383046137323000,1.379322998046875,-2.408263683319092,-2.2036819458007812,1.1242461204528809
1676383046147323100,1.3893232421875,-3.017961025238037,-2.1000771522521973,0.8826003074645996
1676383046157322200,1.399322265625,-3.4432449340820312,-1.7177491188049316,0.6688804626464844
1676383046167321300,1.4093212890625,-3.4574036598205566,-1.7734417915344238,0.7859947681427002
1676383046177320400,1.419320556640625,-3.1331281661987305,-2.1244559288024902,0.9359545707702637
1676383046187319600,1.429319580078125,-2.422156572341919,-1.7334542274475098,0.910973072052002
1676383046197318400,1.439318359375,-1.9729297161102295,-1.9596467018127441,0.714198112487793
1676383046207317500,1.4493173828125,-1.6887283325195312,-2.0314102172851562,0.8101844787597656
1676383046217316600,1.459316650390625,-1.7819156646728516,-1.939929485321045,1.0785057544708252
1676383046227316000,1.46931591796875,-2.066953182220459,-2.2431435585021973,1.2455692291259766
1676383046237314800,1.479314697265625,-2.1069648265838623,-2.2126622200012207,1.1031326055526733
1676383046247314200,1.489314208984375,-2.9764766693115234,-2.3765125274658203,1.027502417564392
1676383046260113200,1.502113037109375,-3.818533420562744,-1.4570231437683105,1.108201026916504
1676383046270112300,1.5121123046875,-4.221545219421387,-1.1318888664245605,1.2185370922088623
1676383046280111400,1.522111328125,-4.611846446990967,-1.5168485641479492,1.3653123378753662
1676383046290110500,1.5321103515625,-3.967602252960205,-1.0126733779907227,0.9291961193084717
1676383046300109600,1.542109619140625,-3.2443647384643555,-1.4200057983398438,0.3708409070968628
1676383046310108700,1.552108642578125,-3.270930767059326,-2.3951735496520996,-0.7911337614059448
1676383046320108000,1.56210791015625,-2.7023134231567383,-2.1659398078918457,-2.0782675743103027
1676383046330108000,1.57210791015625,-1.9709601402282715,-1.5989761352539062,-2.0892133712768555
1676383046340108000,1.58210791015625,-0.8821172714233398,-1.5500283241271973,-0.8034677505493164
1676383046350109000,1.59210888671875,-0.7092494964599609,-1.579826831817627,0.3963059186935425
1676383046360108800,1.60210888671875,-0.8713874816894531,-1.8434367179870605,1.2774981260299683
1676383046370109000,1.61210888671875,-1.1731953620910645,-1.9693117141723633,1.8682022094726562
1676383046380108800,1.62210888671875,-1.2011032104492188,-2.070840835571289,1.5277882814407349
1676383046390109000,1.63210888671875,-1.1335539817810059,-1.8075542449951172,0.9086874723434448
1676383046400108800,1.64210888671875,-1.5863375663757324,-1.3571114540100098,0.42818182706832886
1676383046410108700,1.652108642578125,-2.148190498352051,-1.645979881286621,0.19031155109405518
1676383046420108800,1.66210888671875,-2.0139222145080566,-1.9816780090332031,0.029510200023651123
1676383046430109000,1.67210888671875,-1.4346585273742676,-2.10205078125,-0.07013094425201416
1676383046440108800,1.68210888671875,-1.0238242149353027,-2.7080063819885254,-0.14688104391098022
1676383046450109000,1.69210888671875,-1.2060670852661133,-2.647675037384033,-0.4820306599140167
1676383046460109800,1.70210986328125,-2.4634571075439453,-1.8877153396606445,-1.3571171760559082
1676383046470110700,1.71211083984375,-3.1592869758605957,-2.17421293258667,-2.032189130783081
1676383046480111400,1.722111328125,-2.7187280654907227,-1.5790510177612305,-2.1857564449310303
1676383046490112300,1.7321123046875,-2.287590980529785,-1.7038750648498535,-1.6097978353500366
1676383046500113200,1.742113037109375,-2.1088671684265137,-2.04898738861084,-0.7342880964279175
1676383046510114000,1.752114013671875,-2.0748343467712402,-2.027458667755127,0.010029226541519165
1676383046520115000,1.762114990234375,-2.40769624710083,-1.8022193908691406,0.7760916352272034
1676383046530115800,1.77211572265625,-2.775343894958496,-1.746872901916504,1.0275102853775024
1676383046540116700,1.78211669921875,-2.5570569038391113,-1.8711280822753906,0.8512701988220215
1676383046550117600,1.79211767578125,-1.7925562858581543,-2.2530641555786133,0.20327597856521606
1676383046560118500,1.802118408203125,-1.06304931640625,-2.4726624488830566,-0.43238985538482666
1676383046570119400,1.812119384765625,-0.5429019927978516,-2.2944297790527344,-0.9943021535873413
1676383046580120300,1.822120361328125,-0.4333672523498535,-2.188446044921875,-1.3773939609527588
1676383046590121200,1.832121337890625,-0.817258358001709,-2.0496573448181152,-1.5451631546020508
1676383046600122000,1.8421220703125,-1.6012349128723145,-1.8717665672302246,-1.9061192274093628
1676383046610123000,1.852123046875,-2.1493959426879883,-1.965031623840332,-1.650700330734253
1676383046620123600,1.86212353515625,-2.6685590744018555,-2.5667386054992676,-1.3873317241668701
1676383046630123800,1.872123779296875,-3.372775077819824,-2.5346226692199707,-1.1231783628463745
1676383046640123600,1.88212353515625,-4.177682876586914,-2.596184253692627,-0.8152525424957275
1676383046650122800,1.892122802734375,-4.488203048706055,-2.1728296279907227,-0.7915873527526855
1676383046660123000,1.902122802734375,-4.249974727630615,-2.0248494148254395,-0.9354276061058044
1676383046670122800,1.912122802734375,-3.717585563659668,-2.212979316711426,-0.9838070273399353
1676383046680123000,1.922122802734375,-3.1512255668640137,-2.3061904907226562,-1.0094597339630127
1676383046690122800,1.932122802734375,-2.62245512008667,-2.096951961517334,-0.9201362133026123
1676383046700123000,1.942122802734375,-2.3510241508483887,-1.78743314743042,-0.6748962998390198
1676383046710122800,1.952122802734375,-2.1584396362304688,-1.729990005493164,-0.2555018365383148
1676383046720123000,1.962122802734375,-2.010636329650879,-1.6515474319458008,0.09220278263092041
1676383046730122800,1.972122802734375,-1.878251552581787,-1.9418220520019531,0.457885205745697
1676383046740122600,1.98212255859375,-1.5772037506103516,-2.0718069076538086,0.5143947601318359
1676383046750123500,1.99212353515625,-1.2961554527282715,-1.9765191078186035,0.3571893572807312
1676383046760123600,2.00212353515625,-1.192430019378662,-1.9019556045532227,0.1551256775856018
1676383046770123500,2.01212353515625,-1.5519232749938965,-1.5499968528747559,-0.007806582376360893
1676383046780123600,2.02212353515625,-1.4573745727539062,-1.5427827835083008,0.18995587527751923
1676383046790123500,2.03212353515625,-1.497218132019043,-1.66387939453125,0.3084200620651245
1676383046800123600,2.04212353515625,-1.3333110809326172,-1.773233413696289,0.2600669264793396
1676383046810123300,2.052123291015625,-0.9922294616699219,-2.0731143951416016,0.2346189022064209
1676383046820123100,2.062123046875,-0.7810816764831543,-1.850041389465332,0.10860241949558258
1676383046830123300,2.072123291015625,-0.6248173713684082,-1.5467205047607422,0.022857725620269775
1676383046840123100,2.082123046875,-0.7053837776184082,-1.57822847366333,0.023159198462963104
1676383046850122500,2.09212255859375,-0.8268961906433105,-1.6369867324829102,0.17848201096057892
1676383046860122400,2.102122314453125,-0.8359136581420898,-2.0224342346191406,0.5098004341125488
1676383046870122500,2.11212255859375,-0.9121832847595215,-2.2171630859375,0.7633458375930786
1676383046880122400,2.122122314453125,-0.9511928558349609,-2.219097137451172,0.8882640600204468
1676383046890122200,2.132122314453125,-0.9117050170898438,-2.0776400566101074,0.7614212036132812
1676383046900122400,2.142122314453125,-1.0401549339294434,-1.7375235557556152,0.38913214206695557
1676383046910122200,2.152122314453125,-1.4548959732055664,-1.6263041496276855,0.04559972882270813
1676383046920122400,2.162122314453125,-1.705836296081543,-1.8396649360656738,-0.232666477560997
1676383046930122200,2.172122314453125,-2.2183375358581543,-1.8091459274291992,-0.2687273621559143
1676383046940122400,2.182122314453125,-2.451889991760254,-1.8870573043823242,-0.4337884187698364
1676383046950123300,2.192123291015625,-2.2831249237060547,-2.088691234588623,-0.21497252583503723
1676383046960123100,2.202123046875,-2.063732624053955,-2.1017541885375977,0.36247578263282776
1676383046970123300,2.212123291015625,-1.7646403312683105,-1.8941073417663574,0.45262467861175537
1676383046980123100,2.222123046875,-1.4156160354614258,-1.849809169769287,0.3509014844894409
1676383046990123300,2.232123291015625,-1.029470443725586,-1.8745756149291992,0.21591100096702576
1676383047000123100,2.242123046875,-0.809506893157959,-2.112758159637451,-0.0020637810230255127
1676383047010123300,2.252123291015625,-0.7717480659484863,-2.167881965637207,-0.3278469443321228
1676383047020123100,2.262123046875,-1.004763126373291,-1.953758716583252,-0.5597445964813232
1676383047030123300,2.272123291015625,-1.3705334663391113,-2.0676217079162598,-0.619083046913147
1676383047040123100,2.282123046875,-1.8894071578979492,-2.026683807373047,-0.5410322546958923
1676383047050122200,2.292122314453125,-2.1103148460388184,-1.9228696823120117,-0.5613452196121216
1676383047060122400,2.302122314453125,-2.125117778778076,-2.017597198486328,-0.49937310814857483
1676383047070122200,2.312122314453125,-2.1162939071655273,-2.040736675262451,-0.5479479432106018
1676383047080122400,2.322122314453125,-2.3380088806152344,-1.9186158180236816,-0.7094446420669556
1676383047090122500,2.33212255859375,-2.6028733253479004,-1.9282660484313965,-0.7612785696983337
1676383047100122400,2.342122314453125,-2.530149459838867,-1.9496331214904785,-0.677309513092041
1676383047110122800,2.352122802734375,-2.4423770904541016,-2.120760440826416,-0.44552329182624817
1676383047120122600,2.36212255859375,-2.2598414421081543,-2.095602035522461,-0.24132657051086426
1676383047130122800,2.372122802734375,-1.996129035949707,-1.9552898406982422,-0.2630995810031891
1676383047140122600,2.38212255859375,-1.6362333297729492,-2.0015158653259277,-0.36407095193862915
1676383047150123500,2.39212353515625,-1.444124698638916,-1.8135933876037598,-0.5507095456123352
1676383047160123600,2.40212353515625,-1.4335851669311523,-1.8104329109191895,-0.647271454334259
1676383047170123500,2.41212353515625,-1.7213644981384277,-1.9605178833007812,-0.7949804663658142
1676383047180123600,2.42212353515625,-1.8637123107910156,-1.8941106796264648,-0.9688972234725952
1676383047190123500,2.43212353515625,-1.8676857948303223,-1.933549404144287,-1.099891185760498
1676383047200123600,2.44212353515625,-1.7949633598327637,-1.8669867515563965,-1.1350090503692627
1676383047210123500,2.45212353515625,-1.6090641021728516,-1.8061718940734863,-1.105004072189331
1676383047220123600,2.46212353515625,-1.4412012100219727,-1.8321990966796875,-1.0193300247192383
1676383047230123500,2.47212353515625,-1.3321537971496582,-1.785402774810791,-0.7511426210403442
1676383047240123600,2.48212353515625,-1.2262473106384277,-1.8283348083496094,-0.5821710824966431
1676383047250122800,2.492122802734375,-1.2534046173095703,-1.8278307914733887,-0.5950006246566772
1676383047260122600,2.50212255859375,-1.336716651916504,-1.8719582557678223,-0.6348469257354736
1676383047270122800,2.512122802734375,-1.5280952453613281,-2.0436768531799316,-0.6813699007034302
1676383047280122600,2.52212255859375,-1.5177226066589355,-1.766319751739502,-0.8668902516365051
1676383047290122800,2.532122802734375,-1.5394978523254395,-1.6074657440185547,-1.067304253578186
1676383047300122600,2.54212255859375,-1.485349178314209,-1.5782413482666016,-1.211312174797058
1676383047310122800,2.552122802734375,-1.2514657974243164,-1.5986533164978027,-1.0978790521621704
1676383047320122600,2.56212255859375,-0.9546289443969727,-1.572378158569336,-0.8528537154197693
1676383047330122800,2.572122802734375,-0.6167454719543457,-1.6912388801574707,-0.4966779053211212
1676383047340122600,2.58212255859375,-0.7847676277160645,-1.8420658111572266,-0.2481827437877655
1676383047350123500,2.59212353515625,-1.1416654586791992,-1.853187084197998,-0.10286445170640945
1676383047360123600,2.60212353515625,-1.3118228912353516,-1.7557859420776367,-0.05913272500038147
1676383047370123500,2.61212353515625,-1.258458137512207,-1.8370766639709473,-0.0649520754814148
1676383047380123600,2.62212353515625,-1.1020541191101074,-1.786008358001709,-0.10067176818847656
1676383047390123500,2.63212353515625,-1.0017666816711426,-1.6903924942016602,-0.1318625807762146
1676383047400123600,2.64212353515625,-0.9210324287414551,-1.832162857055664,-0.2327941656112671
1676383047410123500,2.65212353515625,-1.0952796936035156,-1.7667112350463867,-0.41825801134109497
1676383047420123600,2.66212353515625,-1.0727534294128418,-1.7411046028137207,-0.3852284252643585
1676383047430123500,2.67212353515625,-1.2480764389038086,-1.8602046966552734,-0.38388022780418396
1676383047440123600,2.68212353515625,-1.2337241172790527,-1.693929672241211,-0.32580769062042236
1676383047450122800,2.692122802734375,-1.2451214790344238,-1.661674976348877,-0.3101791739463806
1676383047460122600,2.70212255859375,-1.1848092079162598,-1.6494669914245605,-0.3079878091812134
1676383047470122800,2.712122802734375,-1.0000028610229492,-1.5901870727539062,-0.39092445373535156
1676383047480122600,2.72212255859375,-0.7326083183288574,-1.6980443000793457,-0.4117041826248169
1676383047490122800,2.732122802734375,-0.675447940826416,-1.6216025352478027,-0.5407105088233948
1676383047500122600,2.74212255859375,-0.6064567565917969,-1.5645036697387695,-0.6685785055160522
1676383047510122800,2.752122802734375,-0.6570830345153809,-1.6774568557739258,-0.6695324182510376
1676383047520122600,2.76212255859375,-0.7226619720458984,-1.5659804344177246,-0.576947033405304
1676383047530122800,2.772122802734375,-0.6847729682922363,-1.5403804779052734,-0.4695606231689453
1676383047540122600,2.78212255859375,-0.6358957290649414,-1.5013160705566406,-0.3901240825653076
1676383047550123500,2.79212353515625,-0.5415205955505371,-1.495622158050537,-0.3599225580692291
1676383047560123400,2.802123291015625,-0.32265520095825195,-1.530381202697754,-0.27416881918907166
1676383047570123500,2.81212353515625,-0.22458505630493164,-1.625838279724121,-0.1779923290014267
1676383047580123400,2.822123291015625,-0.32915258407592773,-1.7702550888061523,-0.17088118195533752
1676383047590123500,2.83212353515625,-0.46254920959472656,-1.7249388694763184,-0.19175782799720764
1676383047600123600,2.84212353515625,-0.6155977249145508,-1.679582118988037,-0.2604765295982361
1676383047610123500,2.85212353515625,-0.8137588500976562,-1.5329303741455078,-0.3404824137687683
1676383047620123600,2.86212353515625,-1.089897632598877,-1.5118775367736816,-0.4073050618171692
1676383047630123500,2.87212353515625,-1.2609524726867676,-1.4838752746582031,-0.4295375347137451
1676383047640123600,2.88212353515625,-1.3313908576965332,-1.573371410369873,-0.42146965861320496
1676383047650122800,2.892122802734375,-1.2823195457458496,-1.6586627960205078,-0.330670028924942
1676383047660122600,2.90212255859375,-1.2164478302001953,-1.7131500244140625,-0.18544307351112366
1676383047670122800,2.912122802734375,-1.1114850044250488,-1.6426844596862793,-0.32417601346969604
1676383047680122600,2.92212255859375,-1.0479583740234375,-1.5754704475402832,-0.48196956515312195
1676383047690122800,2.932122802734375,-0.9767780303955078,-1.5507502555847168,-0.5387614369392395
1676383047700122600,2.94212255859375,-0.9453330039978027,-1.4841876029968262,-0.5389160513877869
1676383047710122800,2.952122802734375,-0.9873623847961426,-1.4478864669799805,-0.48591524362564087
1676383047720122600,2.96212255859375,-1.0262494087219238,-1.4489550590515137,-0.410040944814682
1676383047730122800,2.972122802734375,-1.076277732849121,-1.530470848083496,-0.3003369867801666
1676383047740122600,2.98212255859375,-1.0863194465637207,-1.5212430953979492,-0.17181479930877686
1676383047750123500,2.99212353515625,-1.0614290237426758,-1.5771980285644531,-0.10498160123825073
1676383047760123600,3.00212353515625,-1.1026949882507324,-1.555370807647705,-0.09331293404102325
1676383047770123500,3.01212353515625,-1.168713092803955,-1.4937739372253418,-0.05549611896276474
1676383047780123600,3.02212353515625,-1.2170166969299316,-1.491316795349121,-0.006215222179889679
1676383047790123500,3.03212353515625,-1.23046875,-1.4829106330871582,0.03956467658281326
1676383047800123600,3.04212353515625,-1.2279391288757324,-1.4491167068481445,0.014315523207187653
1676383047810123500,3.05212353515625,-1.1179084777832031,-1.5185909271240234,-0.05987652391195297
1676383047820123600,3.06212353515625,-0.9765510559082031,-1.5159025192260742,-0.21425548195838928
1676383047830123500,3.07212353515625,-0.9882493019104004,-1.575246810913086,-0.40590721368789673
1676383047840123600,3.08212353515625,-1.047469139099121,-1.4833216667175293,-0.5687723755836487
1676383047850122800,3.092122802734375,-1.0631914138793945,-1.3812518119812012,-0.6085267066955566
1676383047860123000,3.102122802734375,-1.0216889381408691,-1.350797176361084,-0.4608736038208008
1676383047870122800,3.112122802734375,-0.9748249053955078,-1.3052434921264648,-0.2833282947540283
1676383047880123000,3.122122802734375,-0.9616274833679199,-1.2720932960510254,-0.0957946628332138
1676383047890122800,3.132122802734375,-0.8328933715820312,-1.331761360168457,0.09047054499387741
1676383047900122600,3.14212255859375,-0.6993293762207031,-1.2473411560058594,0.1260356307029724
1676383047910122800,3.152122802734375,-0.6464090347290039,-1.1781377792358398,0.10835019499063492
1676383047920122600,3.16212255859375,-0.6099133491516113,-1.13909912109375,0.04492167755961418
1676383047930122800,3.172122802734375,-0.6373605728149414,-1.0291948318481445,-0.11817805469036102
1676383047940122600,3.18212255859375,-0.6648139953613281,-0.940345287322998,-0.2771550118923187
1676383047950123500,3.19212353515625,-0.5260019302368164,-0.8934531211853027,-0.3550117015838623
1676383047960123600,3.20212353515625,-0.2931041717529297,-0.9275503158569336,-0.34534209966659546
1676383047970123500,3.21212353515625,-0.27058982849121094,-1.0303187370300293,-0.3360040783882141
1676383047980123600,3.22212353515625,-0.2962207794189453,-0.8701138496398926,-0.4332368075847626
1676383047990123500,3.23212353515625,-0.24948596954345703,-0.9103164672851562,-0.4671025574207306
1676383048000123600,3.24212353515625,-0.2620429992675781,-0.8945784568786621,-0.4399358630180359
1676383048010123500,3.25212353515625,-0.3075599670410156,-0.8732161521911621,-0.4272952973842621
1676383048020123600,3.26212353515625,-0.5251684188842773,-0.8490662574768066,-0.4204292297363281
1676383048030123500,3.27212353515625,-0.6678476333618164,-0.8741159439086914,-0.37574994564056396
1676383048040123600,3.28212353515625,-0.6510429382324219,-0.8996944427490234,-0.27835825085639954
1676383048050122800,3.292122802734375,-0.6682491302490234,-0.8586330413818359,-0.25563815236091614
1676383048060122600,3.30212255859375,-0.7461957931518555,-0.813601016998291,-0.18486981093883514
1676383048070122800,3.312122802734375,-0.7467260360717773,-0.7730422019958496,-0.1796250343322754
1676383048080122600,3.32212255859375,-0.6896085739135742,-0.699617862701416,-0.1645328253507614
1676383048090122800,3.332122802734375,-0.5267763137817383,-0.5980439186096191,-0.07737419009208679
1676383048100123000,3.342122802734375,-0.3968343734741211,-0.6761536598205566,-0.032498978078365326
1676383048110122500,3.35212255859375,-0.3333091735839844,-0.6909332275390625,0.0016575586050748825
1676383048120122400,3.362122314453125,-0.2762012481689453,-0.6876959800720215,-0.08839870989322662
1676383048130122200,3.372122314453125,-0.2823934555053711,-0.6967325210571289,-0.28880128264427185
1676383048140122400,3.382122314453125,-0.34264469146728516,-0.57232666015625,-0.48389410972595215
1676383048150123300,3.392123291015625,-0.47197818756103516,-0.5666470527648926,-0.5625241994857788
1676383048160123100,3.402123046875,-0.6252498626708984,-0.4767756462097168,-0.6475552320480347
1676383048170123300,3.412123291015625,-0.7096347808837891,-0.4032778739929199,-0.562296450138092
1676383048180123100,3.422123046875,-0.7507877349853516,-0.40183210372924805,-0.417816698551178
1676383048190123300,3.432123291015625,-0.707911491394043,-0.4078998565673828,-0.0813894122838974
1676383048200123100,3.442123046875,-0.5872859954833984,-0.4799222946166992,0.2405126392841339
1676383048210123000,3.452123046875,-0.4301471710205078,-0.41855764389038086,0.3778976500034332
1676383048220123000,3.462122802734375,-0.3282632827758789,-0.40541887283325195,0.44098421931266785
1676383048230123000,3.472123046875,-0.23017597198486328,-0.46242237091064453,0.4317994713783264
1676383048240123000,3.482122802734375,-0.053046226501464844,-0.4291067123413086,0.34551456570625305
1676383048250122000,3.4921220703125,0.0902395248413086,-0.3921394348144531,0.2422809600830078
1676383048260122000,3.5021220703125,0.12314414978027344,-0.3921933174133301,0.1708320826292038
1676383048270122000,3.5121220703125,0.07274913787841797,-0.3457612991333008,0.03172667697072029
1676383048280122000,3.5221220703125,0.012247085571289062,-0.293057918548584,-0.008071660995483398
1676383048290122000,3.5321220703125,-0.1324462890625,-0.3031916618347168,-0.027181584388017654
1676383048300122000,3.5421220703125,-0.4000368118286133,-0.27868175506591797,-0.036014147102832794
1676383048310122000,3.5521220703125,-0.6398582458496094,-0.21843576431274414,-0.033706311136484146
1676383048320122000,3.5621220703125,-0.6503238677978516,-0.21651077270507812,0.008764320984482765
1676383048330122000,3.5721220703125,-0.5160903930664062,-0.2575068473815918,0.05435951426625252
1676383048340122000,3.5821220703125,-0.37921142578125,-0.2017655372619629,0.0374818816781044
1676383048350123000,3.592123046875,-0.1636638641357422,-0.18903398513793945,0.01421966403722763
1676383048360123000,3.602122802734375,0.06668949127197266,-0.21799564361572266,0.035063568502664566
1676383048370123000,3.612123046875,0.27312183380126953,-0.21094846725463867,0.060250911861658096
1676383048380123000,3.622122802734375,0.32277393341064453,-0.24485349655151367,0.004987724125385284
1676383048390123000,3.632123046875,0.3026418685913086,-0.20102930068969727,-0.027115240693092346
1676383048400123000,3.642122802734375,0.1409149169921875,-0.21836090087890625,-0.017644232138991356
1676383048410123300,3.652123291015625,-0.07905101776123047,-0.2640190124511719,-0.004838088061660528
1676383048420123400,3.662123291015625,-0.17298126220703125,-0.20408105850219727,-0.0198708213865757
1676383048430123300,3.672123291015625,-0.173309326171875,-0.2802391052246094,-0.030530894175171852
1676383048440123400,3.682123291015625,-0.22723388671875,-0.21901941299438477,-0.08533084392547607
1676383048450122500,3.69212255859375,-0.2272348403930664,-0.20051002502441406,0.01306859403848648
1676383048460122400,3.702122314453125,-0.21618270874023438,-0.21234512329101562,0.0035788817331194878
1676383048470122500,3.71212255859375,-0.2270669937133789,-0.22240591049194336,-0.06930661201477051
1676383048480122400,3.722122314453125,-0.26848411560058594,-0.1452794075012207,-0.161233052611351
1676383048490122500,3.73212255859375,-0.25215721130371094,-0.23763751983642578,-0.1835978925228119
1676383048500122400,3.742122314453125,-0.22873878479003906,-0.13137388229370117,-0.1938958615064621
1676383048510122800,3.752122802734375,-0.24657058715820312,-0.19843626022338867,-0.13640622794628143
1676383048520122600,3.76212255859375,-0.1284799575805664,-0.17058944702148438,-0.15935558080673218
1676383048530122800,3.772122802734375,0.10407829284667969,-0.1266937255859375,-0.2079164683818817
1676383048540122600,3.78212255859375,0.1038217544555664,-0.1267251968383789,-0.18517902493476868
1676383048550123500,3.79212353515625,0.7137975692749023,-0.1988964080810547,0.4267891049385071
1676383048560123600,3.80212353515625,1.0351533889770508,-0.0024437904357910156,0.6702523827552795
1676383048570123500,3.81212353515625,1.0313129425048828,0.04755735397338867,0.5849958062171936
1676383048580123600,3.82212353515625,1.1186141967773438,0.21838903427124023,0.07726152241230011
1676383048590123500,3.83212353515625,1.8072967529296875,1.4475517272949219,-0.28241801261901855
1676383048600123600,3.84212353515625,3.486326217651367,0.8977274894714355,-0.2050676792860031
1676383048610123500,3.85212353515625,6.314260482788086,0.7663164138793945,0.020021483302116394
1676383048620123600,3.86212353515625,8.27276611328125,-0.007635593414306641,-0.20152226090431213
1676383048630123500,3.87212353515625,7.840399742126465,-0.6618967056274414,-0.43112948536872864
1676383048640123600,3.88212353515625,7.712125778198242,-0.5324444770812988,-0.5720323920249939
1676383048650122800,3.892122802734375,7.595004081726074,0.21717071533203125,-0.6780338287353516
1676383048660122600,3.90212255859375,7.475681781768799,0.9142050743103027,-0.7316222786903381
1676383048670122800,3.912122802734375,7.398559093475342,0.8941659927368164,-0.8292546272277832
1676383048680122600,3.92212255859375,7.342917442321777,0.6592793464660645,-0.8925517201423645
1676383048690122800,3.932122802734375,7.314047813415527,0.4636554718017578,-0.9779264330863953
1676383048700122600,3.94212255859375,7.286362648010254,0.48905372619628906,-1.0778834819793701
1676383048710122800,3.952122802734375,7.27005672454834,0.8330826759338379,-1.170556902885437
1676383048720122600,3.96212255859375,7.220993518829346,1.2257661819458008,-1.277354121208191
1676383048730122800,3.972122802734375,7.169244289398193,1.435133457183838,-1.3961966037750244
1676383048740122600,3.98212255859375,7.070640563964844,1.5569186210632324,-1.4623656272888184
1676383048750123500,3.99212353515625,6.998410224914551,1.5310311317443848,-1.5765230655670166
1676383048760123600,4.00212353515625,6.824740886688232,1.354783058166504,-1.6052476167678833
1676383048770123500,4.01212353515625,6.855331897735596,1.7197299003601074,-1.860236644744873
1676383048780123600,4.02212353515625,6.787382125854492,2.260303020477295,-1.9933886528015137
1676383048790123500,4.03212353515625,6.672901630401611,2.777651309967041,-2.186612367630005
1676383048800123600,4.04212353515625,6.495045185089111,3.0939340591430664,-2.310159921646118
1676383048810123500,4.05212353515625,6.257410049438477,3.2097296714782715,-2.4134819507598877
1676383048820123600,4.06212353515625,6.012763500213623,3.222700595855713,-2.5056204795837402
1676383048830123500,4.07212353515625,5.779159069061279,3.3713502883911133,-2.5987672805786133
1676383048840123600,4.08212353515625,5.509360313415527,4.145113945007324,-2.7417874336242676
1676383048850122800,4.092122802734375,5.200035095214844,4.655156135559082,-2.8018510341644287
1676383048860122600,4.10212255859375,4.851608753204346,4.931912422180176,-2.809957265853882
1676383048870122800,4.112122802734375,4.509109973907471,5.485653877258301,-2.757551431655884
1676383048880122600,4.12212255859375,4.222321033477783,5.130745887756348,-2.6591947078704834
1676383048890122800,4.132122802734375,3.9359328746795654,5.203042030334473,-2.5571441650390625
1676383048900122600,4.14212255859375,3.622708320617676,6.16561222076416,-2.4843173027038574
1676383048910122800,4.152122802734375,3.378085136413574,6.354133605957031,-2.337934970855713
1676383048920122600,4.16212255859375,3.1235756874084473,6.007561683654785,-2.067979097366333
1676383048930122800,4.172122802734375,2.9349300861358643,6.149197578430176,-1.9083739519119263
1676383048940122600,4.18212255859375,2.7757296562194824,6.164646148681641,-1.6873879432678223
1676383048950123500,4.19212353515625,2.695028781890869,6.350197792053223,-1.5333582162857056
1676383048960123600,4.20212353515625,2.6099319458007812,6.471358299255371,-1.3760679960250854
1676383048970123500,4.21212353515625,2.4676432609558105,6.581184387207031,-1.229893684387207
1676383048980123600,4.22212353515625,2.336332321166992,6.667855262756348,-1.1216908693313599
1676383048990123500,4.23212353515625,2.217571496963501,6.715238571166992,-1.0435153245925903
1676383049000123600,4.24212353515625,2.0909476280212402,6.898822784423828,-1.0645751953125
1676383049010123500,4.25212353515625,1.9100327491760254,6.961223602294922,-1.0614820718765259
1676383049020123600,4.26212353515625,1.646857738494873,7.3938798904418945,-1.07269287109375
1676383049030123500,4.27212353515625,1.3480273485183716,7.303615570068359,-1.1084282398223877
1676383049040123600,4.28212353515625,0.9734662771224976,7.544548988342285,-1.1114906072616577
1676383049050122800,4.292122802734375,0.6638754606246948,8.053756713867188,-1.1941955089569092
1676383049060122600,4.30212255859375,0.2808329463005066,8.198341369628906,-1.1504156589508057
1676383049070122800,4.312122802734375,-0.16627104580402374,8.161665916442871,-1.0313044786453247
1676383049080122600,4.32212255859375,-0.5816223621368408,8.335326194763184,-0.9370636940002441
1676383049090122800,4.332122802734375,-0.9168413281440735,8.186919212341309,-0.755696177482605
1676383049100122600,4.34212255859375,-1.2201892137527466,8.481477737426758,-0.5793336629867554
1676383049110122800,4.352122802734375,-1.4730370044708252,8.088973045349121,-0.33742761611938477
1676383049120122400,4.362122314453125,-1.7077255249023438,7.854574203491211,0.07272791862487793
1676383049130122200,4.372122314453125,-1.8134222030639648,7.82901668548584,0.3865177631378174
1676383049140122400,4.382122314453125,-1.9100117683410645,7.4792375564575195,0.726416826248169
1676383049150123000,4.392123046875,-1.9191275835037231,7.524360656738281,1.0470354557037354
1676383049160123100,4.402123046875,-1.9419074058532715,7.3902997970581055,1.4036659002304077
1676383049170123000,4.412123046875,-1.977860927581787,6.789923667907715,1.8015154600143433
1676383049180123100,4.422123046875,-1.9466814994812012,6.391053199768066,2.1096277236938477
1676383049190123000,4.432123046875,-1.9434552192687988,6.50931453704834,2.3789279460906982
1676383049200123100,4.442123046875,-1.9406523704528809,6.3961286544799805,2.5900559425354004
1676383049210123000,4.452123046875,-2.0045299530029297,5.843598365783691,2.8307533264160156
1676383049220123100,4.462123046875,-2.1169934272766113,5.748377799987793,3.0697641372680664
1676383049230123000,4.472123046875,-2.2356367111206055,5.352377891540527,3.220346689224243
1676383049240123100,4.482123046875,-2.365302324295044,5.038129806518555,3.432605504989624
1676383049250122200,4.492122314453125,-2.418513536453247,5.1762237548828125,3.6782312393188477
1676383049260122400,4.502122314453125,-2.651217460632324,5.194154739379883,3.691365957260132
1676383049270122200,4.512122314453125,-2.8121187686920166,5.125270843505859,3.804734468460083
1676383049280122400,4.522122314453125,-2.9718778133392334,5.33570671081543,3.9193849563598633
1676383049290122200,4.532122314453125,-3.0987377166748047,4.498979568481445,4.135425090789795
1676383049300122400,4.542122314453125,-3.204888343811035,3.8414831161499023,4.405704021453857
1676383049310122200,4.552122314453125,-3.264946699142456,4.196488380432129,4.502281188964844
1676383049320122400,4.562122314453125,-3.299467086791992,4.163894176483154,4.632826805114746
1676383049330122200,4.572122314453125,-3.2943954467773438,4.1211066246032715,4.778947830200195
1676383049340122400,4.582122314453125,-3.2538323402404785,3.7122154235839844,4.953435897827148
1676383049350123300,4.592123291015625,-3.2220561504364014,3.3431711196899414,5.227643013000488
1676383049360123100,4.602123046875,-3.1373727321624756,2.888538360595703,5.4890851974487305
1676383049370123300,4.612123291015625,-3.057669162750244,2.6979756355285645,5.705334663391113
1676383049380123100,4.622123046875,-2.932025194168091,2.4291319847106934,5.836983680725098
1676383049390123000,4.632123046875,-2.8096377849578857,2.3351783752441406,5.987689971923828
1676383049400123100,4.642123046875,-2.724219799041748,2.3217549324035645,6.096316814422607
1676383049410122200,4.652122314453125,-2.6008498668670654,2.327453136444092,6.201929569244385
1676383049420122600,4.66212255859375,-2.4578497409820557,2.6776742935180664,6.299191474914551
1676383049430122800,4.672122802734375,-2.3377490043640137,2.1791415214538574,6.50516939163208
1676383049440122600,4.68212255859375,-2.232944965362549,1.3846869468688965,6.72651481628418
1676383049450121700,4.692121826171875,-2.1570231914520264,1.258495807647705,6.850188732147217
1676383049460121900,4.702121826171875,-2.039362668991089,1.418989658355713,6.933642864227295
1676383049470121700,4.712121826171875,-1.9530282020568848,1.2103266716003418,7.028636932373047
1676383049480121900,4.722121826171875,-1.8374531269073486,1.3236894607543945,7.0536932945251465
1676383049490121700,4.732121826171875,-1.7620503902435303,1.081153392791748,7.135671138763428
1676383049500121900,4.742121826171875,-1.6572028398513794,1.2047829627990723,7.214262962341309
1676383049510121700,4.752121826171875,-1.5916526317596436,1.1223678588867188,7.294559478759766
1676383049520121900,4.762121826171875,-1.506535530090332,0.9777884483337402,7.3668928146362305
1676383049530121700,4.772121826171875,-1.433527946472168,0.6949167251586914,7.4481377601623535
1676383049540121900,4.782121826171875,-1.3785827159881592,0.6672878265380859,7.492949962615967
1676383049550122800,4.792122802734375,-1.294588565826416,0.8283214569091797,7.484594345092773
1676383049560122600,4.80212255859375,-1.1874635219573975,1.0227713584899902,7.451667785644531
1676383049570122800,4.812122802734375,-1.108168363571167,1.2696571350097656,7.412988662719727
1676383049580122600,4.82212255859375,-1.028810977935791,1.1661243438720703,7.444545745849609
1676383049590122800,4.832122802734375,-0.9575021266937256,1.1667084693908691,7.447661876678467
1676383049600122600,4.84212255859375,-0.909704864025116,1.226107120513916,7.415003776550293
1676383049610122800,4.852122802734375,-0.8530139923095703,1.3494415283203125,7.408787250518799
1676383049620122600,4.86212255859375,-0.8084675073623657,1.5184931755065918,7.3712029457092285
1676383049630122800,4.872122802734375,-0.760353684425354,1.495805263519287,7.32871150970459
1676383049640122600,4.88212255859375,-0.6981228590011597,1.6479039192199707,7.235814571380615
1676383049650121700,4.892121826171875,-0.6397663950920105,1.7852096557617188,7.127995014190674
1676383049660121900,4.902121826171875,-0.5701786875724792,1.8951983451843262,7.069343090057373
1676383049670121700,4.912121826171875,-0.4927371144294739,2.099782943725586,6.971007347106934
1676383049680121900,4.922121826171875,-0.40418577194213867,2.0828986167907715,6.959671497344971
1676383049690121700,4.932121826171875,-0.33433979749679565,2.124673366546631,6.867498874664307
1676383049700121900,4.942121826171875,-0.30321821570396423,2.5467090606689453,6.718700408935547
1676383049710122800,4.952122802734375,-0.23943036794662476,3.0002312660217285,6.585390090942383
1676383049720122600,4.96212255859375,-0.14775626361370087,3.0042738914489746,6.508908271789551
1676383049730122800,4.972122802734375,-0.06034647673368454,2.9586472511291504,6.387061595916748
1676383049740122600,4.98212255859375,0.03845357522368431,3.158813953399658,6.255836009979248
1676383049750123500,4.99212353515625,0.1166761964559555,3.7252931594848633,6.115166664123535
1676383049760123400,5.002123291015625,0.1786743402481079,3.5742673873901367,6.034363269805908
1676383049770123500,5.01212353515625,0.22641389071941376,3.696585178375244,5.933097839355469
1676383049780123600,5.02212353515625,0.30821436643600464,4.004280090332031,5.7607269287109375
1676383049790123500,5.03212353515625,0.37629008293151855,4.184737205505371,5.617735862731934
1676383049800123600,5.04212353515625,0.44344037771224976,4.323525905609131,5.440541744232178
1676383049810122800,5.052122802734375,0.4861358404159546,4.497524738311768,5.291797161102295
1676383049820122600,5.06212255859375,0.49820011854171753,4.843380451202393,5.143290042877197
1676383049830122800,5.072122802734375,0.4793948531150818,4.856019496917725,4.987888336181641
1676383049840122600,5.08212255859375,0.42382651567459106,5.107240676879883,4.788971424102783
1676383049850122000,5.0921220703125,0.4027861952781677,5.324644088745117,4.544699668884277
1676383049860121900,5.102121826171875,0.30767399072647095,5.77902889251709,4.298264980316162
1676383049870122000,5.1121220703125,0.22595122456550598,5.941642761230469,4.097722053527832
1676383049880121900,5.122121826171875,0.076439768075943,6.263087272644043,3.852107524871826
1676383049890121700,5.132121826171875,-0.06238497421145439,6.4224748611450195,3.607476234436035
1676383049900121900,5.142121826171875,-0.17793923616409302,6.623623847961426,3.2940897941589355
1676383049910121700,5.152121826171875,-0.272213339805603,6.586358070373535,2.9668025970458984
1676383049920121900,5.162121826171875,-0.35655397176742554,6.875363349914551,2.682065963745117
1676383049930121700,5.172121826171875,-0.4191829562187195,7.073105812072754,2.4037024974823
1676383049940121900,5.182121826171875,-0.4469231367111206,7.3504838943481445,2.096987009048462
1676383049950122800,5.192122802734375,-0.4215642809867859,7.504307746887207,1.7808427810668945
1676383049960122600,5.20212255859375,-0.3315298855304718,7.475139617919922,1.4451788663864136
1676383049970122800,5.212122802734375,-0.25601330399513245,7.572284698486328,1.1132060289382935
1676383049980122600,5.22212255859375,-0.14639995992183685,7.784432411193848,0.8538225889205933
1676383049990122800,5.232122802734375,-0.026913687586784363,7.8177995681762695,0.583160400390625
1676383050000122600,5.24212255859375,0.05671346187591553,7.73546028137207,0.3211463689804077
1676383050010122800,5.252122802734375,0.16004684567451477,7.609813690185547,0.03520810604095459
1676383050020122600,5.26212255859375,0.21586328744888306,7.608819961547852,-0.24988967180252075
1676383050030122800,5.272122802734375,0.28365612030029297,7.332396507263184,-0.4460873603820801
1676383050040122600,5.28212255859375,0.2925660014152527,7.463449478149414,-0.6640905141830444
1676383050050121700,5.292121826171875,0.2657244801521301,7.592551231384277,-0.9396982789039612
1676383050060121900,5.302121826171875,0.18907904624938965,7.149755477905273,-1.1653940677642822
1676383050070121700,5.312121826171875,0.11429274082183838,7.027891159057617,-1.4493091106414795
1676383050080121900,5.322121826171875,0.03130471706390381,7.42075252532959,-1.6899434328079224
1676383050090121700,5.332121826171875,-0.10158020257949829,6.91793155670166,-1.9125189781188965
1676383050100121900,5.342121826171875,-0.20416633784770966,6.914807319641113,-2.196585178375244
1676383050110122800,5.352122802734375,-0.27630189061164856,7.018270492553711,-2.498300552368164
1676383050120122600,5.36212255859375,-0.34839385747909546,6.461611747741699,-2.795980930328369
1676383050130122800,5.372122802734375,-0.3238132894039154,6.070218086242676,-3.0680222511291504
1676383050140122600,5.38212255859375,-0.3383795917034149,6.374485015869141,-3.3823506832122803
1676383050150123500,5.39212353515625,-0.28661343455314636,6.297107696533203,-3.6344552040100098
1676383050160123400,5.402123291015625,-0.2049872875213623,5.715396881103516,-3.87453031539917
1676383050170123500,5.41212353515625,-0.09729614853858948,5.797345161437988,-4.186900615692139
1676383050180123400,5.422123291015625,0.057437166571617126,5.563253402709961,-4.4189910888671875
1676383050190123500,5.43212353515625,0.18246492743492126,5.265145301818848,-4.650615692138672
1676383050200123400,5.442123291015625,0.3263004422187805,4.804347038269043,-4.843560695648193
1676383050210123500,5.45212353515625,0.4557900130748749,4.935092926025391,-5.05573034286499
1676383050220123400,5.462123291015625,0.6072223782539368,4.402381896972656,-5.245760440826416
1676383050230123500,5.47212353515625,0.7298773527145386,4.180412292480469,-5.384713649749756
1676383050240123400,5.482123291015625,0.8177657127380371,3.846517562866211,-5.551706314086914
1676383050250122800,5.492122802734375,0.9358347654342651,3.6501502990722656,-5.697704315185547
1676383050260122600,5.50212255859375,0.9910531044006348,3.35845947265625,-5.840945720672607
1676383050270122500,5.51212255859375,1.0409622192382812,3.057162284851074,-5.954590320587158
1676383050280122600,5.52212255859375,1.0892919301986694,2.8294057846069336,-6.092992782592773
1676383050290122500,5.53212255859375,1.1276826858520508,2.4541916847229004,-6.198062896728516
1676383050300122600,5.54212255859375,1.1715096235275269,2.3667235374450684,-6.305421829223633
1676383050310122800,5.552122802734375,1.2072641849517822,2.171365261077881,-6.407673358917236
1676383050320122600,5.56212255859375,1.2428659200668335,1.8866567611694336,-6.490377902984619
1676383050330122800,5.572122802734375,1.269654631614685,1.5404515266418457,-6.567605495452881
1676383050340122600,5.58212255859375,1.321773886680603,1.4717235565185547,-6.672605514526367
1676383050350123500,5.59212353515625,1.3895922899246216,1.3238768577575684,-6.722659587860107
1676383050360123600,5.60212353515625,1.4429364204406738,1.3288531303405762,-6.795658111572266
1676383050370123500,5.61212353515625,1.5315320491790771,1.0383505821228027,-6.849101543426514
1676383050380123600,5.62212353515625,1.6273518800735474,0.6029796600341797,-6.909629821777344
1676383050390123500,5.63212353515625,1.7062504291534424,0.6599059104919434,-6.970886707305908
1676383050400123400,5.642123291015625,1.8232295513153076,0.4830179214477539,-7.0088114738464355
1676383050410123500,5.65212353515625,1.926954746246338,0.34718942642211914,-7.02626371383667
1676383050420123400,5.662123291015625,2.0487287044525146,0.24248075485229492,-7.083362579345703
1676383050430123500,5.67212353515625,2.164875030517578,0.11336231231689453,-7.091546058654785
1676383050440123400,5.682123291015625,2.302020311355591,0.15379667282104492,-7.106245994567871
1676383050450122800,5.692122802734375,2.423063039779663,0.0484461784362793,-7.107977867126465
1676383050460122600,5.70212255859375,2.5443506240844727,-0.1412339210510254,-7.126231670379639
1676383050470122800,5.712122802734375,2.6565403938293457,-0.2115039825439453,-7.106288433074951
1676383050480122600,5.72212255859375,2.7838096618652344,-0.13843679428100586,-7.081674575805664
1676383050490122800,5.732122802734375,2.907496213912964,-0.17310380935668945,-7.066971778869629
1676383050500122600,5.74212255859375,3.0134623050689697,-0.10732030868530273,-7.016582489013672
1676383050510122800,5.752122802734375,3.130582332611084,-0.19462013244628906,-6.964076042175293
1676383050520122600,5.76212255859375,3.254382371902466,-0.25778722763061523,-6.918959140777588
1676383050530122800,5.772122802734375,3.339440107345581,-0.29926204681396484,-6.876229286193848
1676383050540122600,5.78212255859375,3.4602954387664795,-0.1943531036376953,-6.8190460205078125
1676383050550123500,5.79212353515625,3.5429275035858154,-0.19278335571289062,-6.746677398681641
1676383050560123400,5.802123291015625,3.637296676635742,-0.022716045379638672,-6.66215705871582
1676383050570123500,5.81212353515625,3.709807872772217,0.025909423828125,-6.579417705535889
1676383050580123400,5.822123291015625,3.8009033203125,0.08954334259033203,-6.476604461669922
1676383050590123500,5.83212353515625,3.8456711769104004,0.23278379440307617,-6.36064338684082
1676383050600123600,5.84212353515625,3.9058642387390137,0.30461931228637695,-6.2718119621276855
1676383050610123500,5.85212353515625,3.9595162868499756,0.5298862457275391,-6.173666477203369
1676383050620123600,5.86212353515625,4.013033866882324,0.6787405014038086,-6.087645053863525
1676383050630123500,5.87212353515625,4.032243251800537,0.8231415748596191,-5.977694511413574
1676383050640123600,5.88212353515625,4.056954860687256,1.035128116607666,-5.867774963378906
1676383050650122800,5.892122802734375,4.088536262512207,1.1636958122253418,-5.750482559204102
1676383050660122600,5.90212255859375,4.092811107635498,1.3915619850158691,-5.641470432281494
1676383050670122800,5.912122802734375,4.08892822265625,1.6607856750488281,-5.5446553230285645
1676383050680122600,5.92212255859375,4.099519729614258,1.8686785697937012,-5.417316436767578
1676383050690122800,5.932122802734375,4.094699859619141,2.190585136413574,-5.319957256317139
1676383050700122600,5.94212255859375,4.106743335723877,2.418971061706543,-5.2153449058532715
1676383050710122800,5.952122802734375,4.08685302734375,2.6264824867248535,-5.070926189422607
1676383050720122600,5.96212255859375,4.079885482788086,2.8644375801086426,-4.959831237792969
1676383050730122800,5.972122802734375,4.075240612030029,3.093081474304199,-4.821333885192871
1676383050740122600,5.98212255859375,4.070921897888184,3.3737778663635254,-4.683799743652344
1676383050750123500,5.99212353515625,4.066149711608887,3.5875205993652344,-4.524205207824707
1676383050760123400,6.002123291015625,4.016482830047607,4.076857566833496,-4.384057998657227
1676383050770123500,6.01212353515625,4.007652282714844,4.245847702026367,-4.196585655212402
1676383050780123400,6.022123291015625,3.9362547397613525,4.021707534790039,-3.954397678375244
1676383050790123500,6.03212353515625,3.8680450916290283,4.472406387329102,-3.7703909873962402
1676383050800123400,6.042123291015625,3.804466724395752,4.842180252075195,-3.582817554473877
1676383050810123500,6.05212353515625,3.732450008392334,5.076473236083984,-3.3920536041259766
1676383050820123400,6.062123291015625,3.6274056434631348,5.340950012207031,-3.1696598529815674
1676383050830123500,6.07212353515625,3.454991579055786,5.8181562423706055,-2.9299888610839844
1676383050840123600,6.08212353515625,3.2807676792144775,5.518282890319824,-2.670147657394409
1676383050850122800,6.092122802734375,3.04475474357605,5.466261863708496,-2.400818109512329
1676383050860122600,6.10212255859375,2.90219783782959,5.936829566955566,-2.216414451599121
1676383050870122800,6.112122802734375,2.641956090927124,6.473156929016113,-2.007148265838623
1676383050880122600,6.12212255859375,2.42927885055542,6.2376556396484375,-1.8271056413650513
1676383050890122800,6.132122802734375,2.1242904663085938,6.444124221801758,-1.620676040649414
1676383050900122600,6.14212255859375,1.8519630432128906,6.668586730957031,-1.4229668378829956
1676383050910122800,6.152122802734375,1.604936957359314,6.805634498596191,-1.2906445264816284
1676383050920122600,6.16212255859375,1.4028754234313965,6.630584716796875,-1.19985830783844
1676383050930122800,6.172122802734375,1.1779062747955322,6.896147727966309,-1.0892854928970337
1676383050940122600,6.18212255859375,0.9258815050125122,7.167773246765137,-1.0035429000854492
1676383050950123500,6.19212353515625,0.7354010343551636,7.28848934173584,-0.9269844889640808
1676383050960123400,6.202123291015625,0.5330699682235718,7.158817291259766,-0.8376397490501404
1676383050970123500,6.21212353515625,0.36353346705436707,6.851263999938965,-0.7503583431243896
1676383050980123600,6.22212353515625,0.1564519703388214,7.5739898681640625,-0.7408554553985596
1676383050990123500,6.23212353515625,-0.008128650486469269,7.469470977783203,-0.6859951615333557
1676383051000123600,6.24212353515625,-0.2319970279932022,7.107471466064453,-0.5803293585777283
1676383051010123500,6.25212353515625,-0.4473191499710083,7.0669050216674805,-0.5063970685005188
1676383051020123600,6.26212353515625,-0.6946665644645691,7.244124412536621,-0.4286082983016968
1676383051030123500,6.27212353515625,-0.914186418056488,6.759494781494141,-0.33036160469055176
1676383051040123600,6.28212353515625,-1.1627379655838013,7.120150566101074,-0.29042965173721313
1676383051050123000,6.292123046875,-1.4221745729446411,7.288188934326172,-0.22218966484069824
1676383051060123000,6.302122802734375,-1.794524908065796,6.429269790649414,-0.08197629451751709
1676383051070123000,6.312123046875,-2.1340179443359375,6.26390266418457,0.04473984241485596
1676383051080123000,6.322122802734375,-2.391543388366699,6.738071441650391,0.1188318133354187
1676383051090123000,6.332123046875,-2.6687464714050293,6.36376953125,0.18337708711624146
1676383051100123100,6.342123046875,-2.995309591293335,5.990873336791992,0.25375908613204956
1676383051110123000,6.352123046875,-3.3224518299102783,5.813559532165527,0.35961979627609253
1676383051120123100,6.362123046875,-3.6213808059692383,5.698540687561035,0.447277307510376
1676383051130123000,6.372123046875,-3.808229446411133,5.114995002746582,0.4817383885383606
1676383051140123000,6.382122802734375,-4.018519878387451,5.000580787658691,0.5025119781494141
1676383051150123800,6.392123779296875,-4.2133636474609375,5.175559043884277,0.47888386249542236
1676383051160124000,6.4021240234375,-4.4235944747924805,4.4837646484375,0.5188964605331421
1676383051170123800,6.412123779296875,-4.626929759979248,4.507706642150879,0.5363093614578247
1676383051180124000,6.4221240234375,-4.7263689041137695,4.331489562988281,0.5084937214851379
1676383051190123800,6.432123779296875,-4.860154151916504,3.932217597961426,0.5043626427650452
1676383051200124000,6.4421240234375,-4.990038871765137,3.641399383544922,0.4613651931285858
1676383051210123800,6.452123779296875,-5.102236270904541,3.630197525024414,0.42036300897598267
1676383051220124000,6.4621240234375,-5.257042407989502,3.4588279724121094,0.3879433870315552
1676383051230123800,6.472123779296875,-5.378794193267822,3.2430830001831055,0.3782859444618225
1676383051240124000,6.4821240234375,-5.499713897705078,3.1752772331237793,0.33408379554748535
1676383051250123000,6.492123046875,-5.623196125030518,2.8465065956115723,0.28880059719085693
1676383051260123100,6.502123046875,-5.769992351531982,2.427504539489746,0.2830924391746521
1676383051270123000,6.512123046875,-5.932741641998291,2.197230815887451,0.2668815851211548
1676383051280123000,6.522122802734375,-6.028018951416016,2.2679171562194824,0.2110726237297058
1676383051290123000,6.532123046875,-6.111783981323242,2.1453866958618164,0.18501460552215576
1676383051300123000,6.542122802734375,-6.224684238433838,1.9029169082641602,0.20538026094436646
1676383051310123000,6.552123046875,-6.369863510131836,1.7391304969787598,0.17647886276245117
1676383051320123000,6.562122802734375,-6.487741947174072,1.5791454315185547,0.17495763301849365
1676383051330123000,6.572123046875,-6.593902111053467,1.248636245727539,0.16039836406707764
1676383051340123100,6.582123046875,-6.7316060066223145,0.8812732696533203,0.1831783652305603
1676383051350123500,6.59212353515625,-6.80258321762085,0.8167929649353027,0.15478289127349854
1676383051360123600,6.60212353515625,-6.838674068450928,1.362208366394043,0.11819678544998169
1676383051370123500,6.61212353515625,-6.92318058013916,0.9629840850830078,0.11894464492797852
1676383051380123600,6.62212353515625,-6.988473892211914,0.4562520980834961,0.1476057767868042
1676383051390123500,6.63212353515625,-7.091677665710449,0.39660215377807617,0.1470160186290741
1676383051400123600,6.64212353515625,-7.126081466674805,0.4333786964416504,0.11774638295173645
1676383051410122800,6.652122802734375,-7.166963577270508,0.32346248626708984,0.12216243147850037
1676383051420122600,6.66212255859375,-7.188387870788574,0.12468719482421875,0.11231911182403564
1676383051430122800,6.672122802734375,-7.207265853881836,0.10050058364868164,0.11215135455131531
1676383051440122600,6.68212255859375,-7.182629108428955,0.33675384521484375,0.08863192796707153
1676383051450121700,6.692121826171875,-7.183842182159424,0.289797306060791,0.0631985068321228
1676383051460121900,6.702121826171875,-7.193693161010742,0.06439971923828125,0.0770537257194519
1676383051470121700,6.712121826171875,-7.188109874725342,-0.0068683624267578125,0.08255349099636078
1676383051480121900,6.722121826171875,-7.185979843139648,0.14506053924560547,0.07769113779067993
1676383051490121700,6.732121826171875,-7.144629955291748,0.24007797241210938,0.03763650357723236
1676383051500121900,6.742121826171875,-7.09900426864624,0.27263975143432617,0.021384164690971375
1676383051510121700,6.752121826171875,-7.027012348175049,0.3234739303588867,-0.009525075554847717
1676383051520121900,6.762121826171875,-6.956663131713867,0.38454627990722656,-0.011630803346633911
1676383051530121700,6.772121826171875,-6.908726215362549,0.4909090995788574,-0.02307574450969696
1676383051540121900,6.782121826171875,-6.846551418304443,0.5388383865356445,-0.031901150941848755
1676383051550122500,6.79212255859375,-6.7933125495910645,0.7431020736694336,-0.06170564889907837
1676383051560122600,6.80212255859375,-6.731739044189453,0.8807134628295898,-0.0644102394580841
1676383051570122500,6.81212255859375,-6.671159267425537,0.9589352607727051,-0.09283901751041412
1676383051580122600,6.82212255859375,-6.579551696777344,1.0920867919921875,-0.1325666457414627
1676383051590122800,6.832122802734375,-6.518592834472656,1.2058711051940918,-0.14324380457401276
1676383051600122600,6.84212255859375,-6.427373886108398,1.3689274787902832,-0.16191226243972778
1676383051610121700,6.852121826171875,-6.343971252441406,1.6087150573730469,-0.1735401600599289
1676383051620121900,6.862121826171875,-6.284804344177246,1.76774263381958,-0.18810206651687622
1676383051630121700,6.872121826171875,-6.218770503997803,1.818263053894043,-0.18665540218353271
1676383051640121900,6.882121826171875,-6.122467041015625,2.192690372467041,-0.22489097714424133
1676383051650121700,6.892121826171875,-6.046738147735596,2.4375476837158203,-0.25099313259124756
1676383051660121900,6.902121826171875,-5.982649803161621,2.2788891792297363,-0.2295508086681366
1676383051670121700,6.912121826171875,-5.87837553024292,2.390946388244629,-0.21650546789169312
1676383051680121900,6.922121826171875,-5.802420616149902,3.0077710151672363,-0.26966947317123413
1676383051690121700,6.932121826171875,-5.704902172088623,3.38134765625,-0.25054919719696045
1676383051700121900,6.942121826171875,-5.579510688781738,3.06044864654541,-0.2321414351463318
1676383051710122800,6.952122802734375,-5.437404155731201,3.326918601989746,-0.2428516149520874
1676383051720122600,6.96212255859375,-5.249436378479004,3.771961212158203,-0.25411269068717957
1676383051730122800,6.972122802734375,-5.052498817443848,3.779672622680664,-0.22809535264968872
1676383051740122600,6.98212255859375,-4.851974010467529,3.9700050354003906,-0.19554683566093445
1676383051750123500,6.99212353515625,-4.6593756675720215,4.193718910217285,-0.19901829957962036
1676383051760123400,7.002123291015625,-4.393234729766846,4.573596000671387,-0.2043699026107788
1676383051770123500,7.01212353515625,-4.130659580230713,4.671539306640625,-0.20384353399276733
1676383051780123400,7.022123291015625,-3.8555922508239746,4.721162796020508,-0.1920873522758484
1676383051790123500,7.03212353515625,-3.5493221282958984,4.822026252746582,-0.1760232150554657
1676383051800123400,7.042123291015625,-3.303079605102539,5.259588241577148,-0.1850210428237915
1676383051810122800,7.052122802734375,-3.0269322395324707,5.317831993103027,-0.17604544758796692
1676383051820122600,7.06212255859375,-2.7458860874176025,5.121257781982422,-0.18921706080436707
1676383051830122800,7.072122802734375,-2.4722468852996826,5.579842567443848,-0.21772503852844238
1676383051840122600,7.08212255859375,-2.226128578186035,5.7140655517578125,-0.23770463466644287
1676383051850122800,7.092122802734375,-2.032451629638672,5.613333702087402,-0.2160831093788147
1676383051860122600,7.10212255859375,-1.8107719421386719,6.076231956481934,-0.29929131269454956
1676383051870122800,7.112122802734375,-1.6357139348983765,5.947473526000977,-0.3345882296562195
1676383051880122600,7.12212255859375,-1.3990049362182617,6.092780113220215,-0.3466761112213135
1676383051890122800,7.132122802734375,-1.2605407238006592,6.398388862609863,-0.4133005142211914
1676383051900122600,7.14212255859375,-1.0621044635772705,6.223685264587402,-0.4616594910621643
1676383051910123500,7.15212353515625,-0.869380533695221,6.330920219421387,-0.486226350069046
1676383051920123400,7.162123291015625,-0.6820260286331177,6.440600395202637,-0.5444178581237793
1676383051930123500,7.17212353515625,-0.4459843635559082,6.377986907958984,-0.6224740743637085
1676383051940123400,7.182123291015625,-0.25020694732666016,6.262423515319824,-0.6035743951797485
1676383051950123500,7.19212353515625,0.02340366691350937,6.488354682922363,-0.6795257329940796
1676383051960123400,7.202123291015625,0.2837684452533722,6.24578857421875,-0.66806560754776
1676383051970123500,7.21212353515625,0.6093856692314148,6.331130027770996,-0.7172776460647583
1676383051980123600,7.22212353515625,0.9285521507263184,6.173765182495117,-0.7404217720031738
1676383051990123500,7.23212353515625,1.22305428981781,6.031639099121094,-0.7611203193664551
1676383052000123600,7.24212353515625,1.5449562072753906,6.081485748291016,-0.7838695645332336
1676383052010123500,7.25212353515625,1.8270219564437866,6.014006614685059,-0.8042234778404236
1676383052020123600,7.26212353515625,2.165052652359009,5.609273910522461,-0.8273083567619324
1676383052030123500,7.27212353515625,2.4646711349487305,5.798795700073242,-0.9314969778060913
1676383052040123600,7.28212353515625,2.699983835220337,5.2568206787109375,-0.9156073927879333
1676383052050122800,7.292122802734375,2.9491145610809326,4.938874244689941,-0.9615759253501892
1676383052060122600,7.30212255859375,3.1359822750091553,5.011166572570801,-1.0139274597167969
1676383052070122800,7.312122802734375,3.3564047813415527,5.028484344482422,-1.079769492149353
1676383052080122600,7.32212255859375,3.58349871635437,5.10825252532959,-1.1587746143341064
1676383052090122500,7.33212255859375,3.662980794906616,4.582531929016113,-1.2437124252319336
1676383052100122600,7.34212255859375,3.780125379562378,4.418271064758301,-1.3226585388183594
1676383052110123300,7.352123291015625,3.911156415939331,4.200562477111816,-1.3886369466781616
1676383052120123400,7.362123291015625,4.050290107727051,4.002056121826172,-1.4892141819000244
1676383052130123300,7.372123291015625,4.198242664337158,3.61574649810791,-1.557237148284912
1676383052140123400,7.382123291015625,4.3248982429504395,3.725309371948242,-1.6693308353424072
1676383052150123300,7.392123291015625,4.42378568649292,3.390763282775879,-1.7538070678710938
1676383052160123400,7.402123291015625,4.541537284851074,3.2044601440429688,-1.8224636316299438
1676383052170123300,7.412123291015625,4.686554908752441,3.0546998977661133,-1.925093412399292
1676383052180123400,7.422123291015625,4.822671890258789,3.086458206176758,-2.003751277923584
1676383052190123300,7.432123291015625,4.997985363006592,2.5567245483398438,-2.0558478832244873
1676383052200123400,7.442123291015625,5.143215656280518,2.384047031402588,-2.160017251968384
1676383052210123500,7.45212353515625,5.264375686645508,2.302703380584717,-2.2300119400024414
1676383052220123400,7.462123291015625,5.398703098297119,2.2399182319641113,-2.3203001022338867
1676383052230123500,7.47212353515625,5.508804798126221,1.7777695655822754,-2.3667349815368652
1676383052240123400,7.482123291015625,5.633873462677002,1.586662769317627,-2.428630828857422
1676383052250122500,7.49212255859375,5.763200283050537,1.5138421058654785,-2.532332181930542
1676383052260122600,7.50212255859375,5.851067543029785,1.3071532249450684,-2.5619945526123047
1676383052270122500,7.51212255859375,5.941037178039551,1.0263266563415527,-2.629910707473755
1676383052280122600,7.52212255859375,6.012233734130859,0.8868975639343262,-2.685481548309326
1676383052290122500,7.53212255859375,6.0697174072265625,0.7856969833374023,-2.7270750999450684
1676383052300122600,7.54212255859375,6.092819690704346,0.6825919151306152,-2.77514386177063
1676383052310122500,7.55212255859375,6.155457973480225,0.44304466247558594,-2.8267438411712646
1676383052320122600,7.56212255859375,6.179360389709473,0.3237900733947754,-2.886690855026245
1676383052330122500,7.57212255859375,6.211096286773682,0.30378198623657227,-2.9363059997558594
1676383052340122600,7.58212255859375,6.206888675689697,0.22678565979003906,-2.9878597259521484
1676383052350123500,7.59212353515625,6.217222690582275,0.09035539627075195,-3.0126166343688965
1676383052360123400,7.602123291015625,6.22218132019043,-0.04183530807495117,-3.0675864219665527
1676383052370123300,7.612123291015625,6.23390007019043,0.057471275329589844,-3.0686848163604736
1676383052380123400,7.622123291015625,6.2230730056762695,-0.007569789886474609,-3.1378111839294434
1676383052390123500,7.63212353515625,6.213321685791016,-0.07962846755981445,-3.162132978439331
1676383052400123600,7.64212353515625,6.2093400955200195,-0.04900169372558594,-3.186791181564331
1676383052410123500,7.65212353515625,6.167430877685547,-0.04104328155517578,-3.2305824756622314
1676383052420123600,7.66212353515625,6.142568588256836,-0.01796722412109375,-3.250136613845825
1676383052430123500,7.67212353515625,6.1100616455078125,-0.01779651641845703,-3.242612600326538
1676383052440123600,7.68212353515625,6.083898067474365,-0.02085256576538086,-3.2580718994140625
1676383052450123000,7.692123046875,6.037570476531982,0.0634760856628418,-3.2844302654266357
1676383052460123000,7.702122802734375,5.977787494659424,0.12945318222045898,-3.2642247676849365
1676383052470123000,7.712123046875,5.942539691925049,0.19332313537597656,-3.266392230987549
1676383052480123000,7.722122802734375,5.905115604400635,0.25974178314208984,-3.278879404067993
1676383052490123000,7.732123046875,5.84859561920166,0.3765425682067871,-3.2561254501342773
1676383052500123000,7.742122802734375,5.789498805999756,0.4959087371826172,-3.238558053970337
1676383052510122800,7.752122802734375,5.753770351409912,0.6058979034423828,-3.2213902473449707
1676383052520123000,7.762122802734375,5.705206871032715,0.7140121459960938,-3.2191805839538574
1676383052530122800,7.772122802734375,5.67105770111084,0.7923851013183594,-3.217254161834717
1676383052540123000,7.782122802734375,5.619253158569336,0.9518022537231445,-3.197197437286377
1676383052550123800,7.792123779296875,5.571710586547852,1.1025195121765137,-3.1569583415985107
1676383052560123600,7.80212353515625,5.519002437591553,1.2309322357177734,-3.1350107192993164
1676383052570123800,7.812123779296875,5.473545074462891,1.4004364013671875,-3.0910472869873047
1676383052580123600,7.82212353515625,5.404551982879639,1.5066719055175781,-3.0564422607421875
1676383052590123800,7.832123779296875,5.346441745758057,1.6157135963439941,-3.0293383598327637
1676383052600123600,7.84212353515625,5.259265899658203,1.8052892684936523,-2.9456517696380615
1676383052610123800,7.852123779296875,5.19408655166626,2.0549259185791016,-2.9181766510009766
1676383052620123600,7.86212353515625,5.130415916442871,2.183770179748535,-2.858961582183838
1676383052630123800,7.872123779296875,5.029764175415039,2.2972564697265625,-2.8156278133392334
1676383052640123600,7.88212353515625,4.881471157073975,2.4775848388671875,-2.737488269805908
1676383052650122800,7.892122802734375,4.745195388793945,2.373157501220703,-2.642333507537842
1676383052660123000,7.902122802734375,4.584810256958008,2.9249610900878906,-2.6214590072631836
1676383052670122800,7.912122802734375,4.4313645362854,3.255952835083008,-2.5518414974212646
1676383052680123000,7.922122802734375,4.273024559020996,3.34139347076416,-2.487983226776123
1676383052690122800,7.932122802734375,4.042706489562988,3.178603172302246,-2.3391623497009277
1676383052700123000,7.942122802734375,3.844588041305542,3.968569755554199,-2.2537670135498047
1676383052710122800,7.952122802734375,3.6512720584869385,4.174670219421387,-2.187446355819702
1676383052720123000,7.962122802734375,3.41733717918396,4.028165817260742,-2.072835922241211
1676383052730122800,7.972122802734375,3.23024845123291,4.00283145904541,-1.9504716396331787
1676383052740123000,7.982122802734375,3.0090363025665283,4.573631286621094,-1.839205265045166
1676383052750123500,7.99212353515625,2.802273988723755,4.711847305297852,-1.7218501567840576
1676383052760123400,8.002123291015625,2.5676164627075195,4.86746883392334,-1.6170289516448975
1676383052770123500,8.01212353515625,2.407137870788574,4.832622528076172,-1.4934420585632324
1676383052780123400,8.022123291015625,2.2129099369049072,5.017375946044922,-1.3462450504302979
1676383052790123500,8.03212353515625,2.0160720348358154,5.013192176818848,-1.2353206872940063
1676383052800123400,8.042123291015624,1.850290060043335,5.072237968444824,-1.1264400482177734
1676383052810123500,8.05212353515625,1.7308361530303955,5.389829635620117,-1.053013563156128
1676383052820123600,8.06212353515625,1.5776315927505493,5.5306901931762695,-0.9601403474807739
1676383052830123500,8.07212353515625,1.4004812240600586,5.285628318786621,-0.8601379990577698
1676383052840123600,8.08212353515625,1.197268009185791,5.469579696655273,-0.7489347457885742
1676383052850122800,8.092122802734375,1.0523366928100586,5.400818824768066,-0.6209758520126343
1676383052860122600,8.10212255859375,0.8674474954605103,5.548917770385742,-0.5993933081626892
1676383052870122800,8.112122802734374,0.7028913497924805,5.669722557067871,-0.5220505595207214
1676383052880122600,8.12212255859375,0.4337918162345886,5.552299499511719,-0.4304199814796448
1676383052890122800,8.132122802734376,0.1867757886648178,5.548104286193848,-0.3400163948535919
1676383052900122600,8.14212255859375,-0.06478431820869446,5.663698196411133,-0.24613222479820251
1676383052910122800,8.152122802734375,-0.3016904592514038,5.041339874267578,-0.15407240390777588
1676383052920122600,8.16212255859375,-0.5606955885887146,5.765880584716797,-0.10977792739868164
1676383052930122800,8.172122802734375,-0.7775465250015259,5.935783386230469,-0.07784867286682129
1676383052940122600,8.18212255859375,-1.113194465637207,5.440421104431152,0.08659607172012329
1676383052950123500,8.19212353515625,-1.382615566253662,5.1073198318481445,0.2298436164855957
1676383052960123400,8.202123291015624,-1.6747803688049316,5.626564979553223,0.32352495193481445
1676383052970123500,8.21212353515625,-1.8860368728637695,5.056312561035156,0.4633663296699524
1676383052980123600,8.22212353515625,-2.106633186340332,4.941807746887207,0.5635538697242737
1676383052990123500,8.23212353515625,-2.3292007446289062,4.894915580749512,0.6934148073196411
1676383053000123600,8.24212353515625,-2.5275468826293945,4.889540672302246,0.8054605722427368
1676383053010123500,8.25212353515625,-2.699734687805176,4.595682144165039,0.943455159664154
1676383053020123600,8.26212353515625,-2.8526997566223145,4.327252388000488,1.043483853340149
1676383053030123500,8.27212353515625,-2.9493041038513184,4.160853385925293,1.137190580368042
1676383053040123600,8.28212353515625,-3.1264960765838623,4.237373352050781,1.2298272848129272
1676383053050122800,8.292122802734376,-3.2405314445495605,3.9718942642211914,1.3411524295806885
1676383053060122600,8.30212255859375,-3.383244276046753,3.5002946853637695,1.4717016220092773
1676383053070122800,8.312122802734375,-3.5198581218719482,3.523453712463379,1.5476114749908447
1676383053080122600,8.32212255859375,-3.6533823013305664,3.590261459350586,1.6147644519805908
1676383053090122800,8.332122802734375,-3.787231922149658,3.223269462585449,1.6781508922576904
1676383053100122600,8.34212255859375,-3.9440064430236816,2.9983158111572266,1.7641518115997314
1676383053110122800,8.352122802734375,-4.082314968109131,2.873615264892578,1.8436343669891357
1676383053120122600,8.36212255859375,-4.2308549880981445,2.831789970397949,1.8975121974945068
1676383053130122800,8.372122802734374,-4.363553047180176,2.5442209243774414,1.961315393447876
1676383053140122600,8.38212255859375,-4.509524345397949,2.2833919525146484,2.01804780960083
1676383053150123500,8.39212353515625,-4.637811660766602,2.364711284637451,2.083968162536621
1676383053160123400,8.402123291015625,-4.752429962158203,2.2416930198669434,2.131716251373291
1676383053170123500,8.41212353515625,-4.906137466430664,1.9501948356628418,2.187246561050415
1676383053180123400,8.422123291015625,-5.008906841278076,1.6936826705932617,2.2811336517333984
1676383053190123500,8.43212353515625,-5.11955451965332,1.7454438209533691,2.350785255432129
1676383053200123400,8.442123291015625,-5.204248428344727,1.491678237915039,2.4025843143463135
1676383053210122500,8.45212255859375,-5.28444242477417,1.4152140617370605,2.4598090648651123
1676383053220122600,8.46212255859375,-5.346639633178711,1.3605823516845703,2.4959239959716797
1676383053230122500,8.47212255859375,-5.408263206481934,1.1984615325927734,2.560854911804199
1676383053240122600,8.48212255859375,-5.468432903289795,0.9897556304931641,2.6359212398529053
1676383053250122800,8.492122802734375,-5.5443949699401855,0.8876819610595703,2.7003893852233887
1676383053260122600,8.50212255859375,-5.563672065734863,0.7997426986694336,2.745180606842041
1676383053270122500,8.51212255859375,-5.598954200744629,0.5814995765686035,2.7917566299438477
1676383053280122600,8.52212255859375,-5.619215965270996,0.5441980361938477,2.8401026725769043
1676383053290122500,8.53212255859375,-5.620189666748047,0.6140575408935547,2.8705062866210938
1676383053300122600,8.54212255859375,-5.634794235229492,0.6299834251403809,2.909278392791748
1676383053310122500,8.55212255859375,-5.647902488708496,0.5169134140014648,2.9516453742980957
1676383053320122600,8.56212255859375,-5.649548530578613,0.41564273834228516,2.9905548095703125
1676383053330122500,8.57212255859375,-5.66357421875,0.39304542541503906,3.023837089538574
1676383053340122600,8.58212255859375,-5.673067092895508,0.36040830612182617,3.063744068145752
1676383053350123500,8.59212353515625,-5.6393561363220215,0.31496095657348633,3.076948404312134
1676383053360123400,8.602123291015625,-5.619385242462158,0.3399825096130371,3.0731163024902344
1676383053370123500,8.61212353515625,-5.593167781829834,0.42940187454223633,3.106127977371216
1676383053380123400,8.622123291015624,-5.567647933959961,0.44697046279907227,3.074383020401001
1676383053390123500,8.63212353515625,-5.571254730224609,0.4571194648742676,3.1288089752197266
1676383053400123400,8.642123291015626,-5.5104522705078125,0.48844337463378906,3.1017684936523438
1676383053410122500,8.65212255859375,-5.478382587432861,0.5168704986572266,3.110548734664917
1676383053420122600,8.66212255859375,-5.436542510986328,0.6022968292236328,3.0882177352905273
1676383053430122500,8.67212255859375,-5.380004405975342,0.7519822120666504,3.0682876110076904
1676383053440122600,8.68212255859375,-5.349305629730225,0.8222432136535645,3.0576767921447754
1676383053450122800,8.692122802734374,-5.293985366821289,0.913640022277832,3.022594451904297
1676383053460122600,8.70212255859375,-5.238210678100586,0.9667582511901855,2.9915294647216797
1676383053470122800,8.712122802734376,-5.216900825500488,1.0766072273254395,2.9628963470458984
1676383053480122600,8.72212255859375,-5.1478400230407715,1.257178783416748,2.9187703132629395
1676383053490122800,8.732122802734375,-5.0843071937561035,1.379894733428955,2.844327926635742
1676383053500122600,8.74212255859375,-5.024280548095703,1.5387892723083496,2.8136141300201416
1676383053510123500,8.75212353515625,-4.9706244468688965,1.5836257934570312,2.764087200164795
1676383053520123400,8.762123291015625,-4.895230770111084,1.6324515342712402,2.7193074226379395
1676383053530241000,8.772240966796875,-4.820382595062256,1.793741226196289,2.6454272270202637
1676383053540241200,8.7822412109375,-4.7587761878967285,1.9293437004089355,2.599567174911499
1676383053550241000,8.792240966796875,-4.684882640838623,2.167022705078125,2.5196049213409424
1676383053560241200,8.8022412109375,-4.572025775909424,2.384369373321533,2.442929744720459
1676383053570241000,8.812240966796875,-4.444089412689209,2.3245792388916016,2.3982491493225098
1676383053580241200,8.8222412109375,-4.318562030792236,2.487302780151367,2.3135387897491455
1676383053590241000,8.832240966796874,-4.173547744750977,2.7531604766845703,2.2181239128112793
1676383053600241200,8.8422412109375,-4.070728778839111,3.0766029357910156,2.152559757232666
1676383053610240300,8.852240234375,-3.8987832069396973,3.0080556869506836,2.080876588821411
1676383053620240400,8.862240478515625,-3.744114398956299,3.0602426528930664,1.9966353178024292
1676383053630240300,8.872240234375,-3.5491490364074707,3.563589096069336,1.8620247840881348
1676383053640240400,8.882240478515625,-3.382488489151001,3.5936737060546875,1.7781152725219727
1676383053650239500,8.892239501953124,-3.2166061401367188,3.515066146850586,1.696196436882019
1676383053660239600,8.902239501953124,-3.0497381687164307,3.7464122772216797,1.5929397344589233
1676383053670239500,8.912239501953126,-2.8877923488616943,4.188462257385254,1.4780553579330444
1676383053680239600,8.922239501953126,-2.694446563720703,4.12677001953125,1.3474023342132568
1676383053690239500,8.932239501953125,-2.492753505706787,4.155172348022461,1.2370038032531738
1676383053700239600,8.942239501953125,-2.332247018814087,4.223610877990723,1.1252648830413818
1676383053710240500,8.952240478515625,-2.2031617164611816,4.344435691833496,0.9902908205986023
1676383053720240400,8.962240478515625,-2.067112684249878,4.623553276062012,0.868296205997467
1676383053730240500,8.972240478515625,-1.920776128768921,4.748246192932129,0.7662599682807922
1676383053740240400,8.982240478515624,-1.7440285682678223,4.858165740966797,0.5908545255661011
1676383053750240500,8.992240478515624,-1.60053551197052,4.853440284729004,0.46899843215942383
1676383053760240400,9.002240478515626,-1.4459764957427979,4.818309783935547,0.2970160245895386
1676383053770240500,9.012240478515626,-1.2889552116394043,5.042915344238281,0.1777072548866272
1676383053780240400,9.022240478515625,-1.1578457355499268,5.1256513595581055,0.04708355665206909
1676383053790240500,9.032240478515625,-0.9762352108955383,5.222043037414551,-0.09851235151290894
1676383053800240400,9.042240478515625,-0.8008251190185547,5.212732315063477,-0.24682199954986572
1676383053810239700,9.05223974609375,-0.5963453650474548,5.1885576248168945,-0.38619568943977356
1676383053820239600,9.062239501953124,-0.39701634645462036,5.1709089279174805,-0.5284624695777893
1676383053830239700,9.07223974609375,-0.16885873675346375,5.090115547180176,-0.6643120050430298
1676383053840239600,9.082239501953126,0.030502110719680786,5.1998090744018555,-0.7718105912208557
1676383053850238700,9.09223876953125,0.25391221046447754,5.195709228515625,-0.8957496881484985
1676383053860238800,9.10223876953125,0.4871998727321625,4.99623966217041,-1.0306065082550049
1676383053870238700,9.11223876953125,0.7244389057159424,4.842807769775391,-1.1809148788452148
1676383053880238800,9.12223876953125,0.9479504823684692,4.771845817565918,-1.2982652187347412
1676383053890238700,9.13223876953125,1.1352777481079102,4.881263732910156,-1.4039801359176636
1676383053900238800,9.14223876953125,1.3039716482162476,4.6707258224487305,-1.5068635940551758
1676383053910239500,9.152239501953124,1.4898089170455933,4.65732479095459,-1.6683135032653809
1676383053920239600,9.162239501953126,1.6693699359893799,4.529851913452148,-1.8065524101257324
1676383053930239500,9.172239501953126,1.8331904411315918,4.2787580490112305,-1.9405834674835205
1676383053940239600,9.182239501953125,1.9356107711791992,3.949604034423828,-2.070528984069824
1676383053950240300,9.192240234375,2.0981781482696533,3.9445276260375977,-2.167581558227539
1676383053960240400,9.202240478515625,2.2094950675964355,4.059743881225586,-2.288869857788086
1676383053970240300,9.212240234375,2.3351831436157227,3.6890344619750977,-2.4243521690368652
1676383053980240400,9.222240478515625,2.469437837600708,3.5789995193481445,-2.5475528240203857
1676383053990240300,9.232240234375,2.5542969703674316,3.416928291320801,-2.668745756149292
1676383054000240400,9.242240478515624,2.666337013244629,3.420659065246582,-2.80137038230896
1676383054010240300,9.252240234375,2.780726671218872,3.148946762084961,-2.9166979789733887
1676383054020240400,9.262240478515626,2.893995523452759,3.06787109375,-3.0480775833129883
1676383054030240300,9.272240234375,3.0152785778045654,2.779158592224121,-3.1399950981140137
1676383054040240400,9.282240478515625,3.134855270385742,2.7324094772338867,-3.2666828632354736
1676383054050239500,9.292239501953125,3.233858823776245,2.4819393157958984,-3.36867618560791
1676383054060239400,9.3022392578125,3.3410611152648926,2.1255016326904297,-3.4651851654052734
1676383054070239500,9.312239501953124,3.4615464210510254,2.1583375930786133,-3.5657219886779785
1676383054080239400,9.3222392578125,3.569566011428833,2.2402801513671875,-3.646453619003296
1676383054090239500,9.332239501953126,3.6776931285858154,1.8635215759277344,-3.7332956790924072
1676383054100239400,9.3422392578125,3.8035922050476074,1.5411100387573242,-3.82004976272583
1676383054110240300,9.352240234375,3.90999436378479,1.4638557434082031,-3.92720365524292
1676383054120240400,9.362240478515625,3.990947723388672,1.4120397567749023,-3.973832845687866
1676383054130240300,9.372240234375,4.0609612464904785,1.0453767776489258,-4.057703018188477
1676383054140240100,9.382240234375,4.131223678588867,1.075845718383789,-4.119759559631348
1676383054150241000,9.392240966796875,4.183043003082275,0.9048323631286621,-4.159869194030762
1676383054160241200,9.4022412109375,4.233702182769775,0.7931370735168457,-4.218481540679932
1676383054170241000,9.412240966796874,4.297635078430176,0.5633153915405273,-4.276506423950195
1676383054180241200,9.4222412109375,4.344130992889404,0.37343740463256836,-4.331249237060547
1676383054190241000,9.432240966796876,4.352494239807129,0.23871707916259766,-4.354996681213379
1676383054200241200,9.4422412109375,4.4012322425842285,0.2392120361328125,-4.3793511390686035
1676383054210241000,9.452240966796875,4.4062819480896,0.15017032623291016,-4.402950286865234
1676383054220241200,9.4622412109375,4.436638832092285,0.14798688888549805,-4.410795211791992
1676383054230241000,9.472240966796875,4.437981605529785,0.09673023223876953,-4.451810836791992
1676383054240241200,9.4822412109375,4.465307235717773,-0.018405437469482422,-4.489803791046143
1676383054250240300,9.492240234375,4.465486526489258,-0.10710334777832031,-4.510150909423828
1676383054260240100,9.502240234375,4.5031890869140625,-0.25325536727905273,-4.536855697631836
1676383054270240300,9.512240234375,4.506444454193115,-0.2058858871459961,-4.553064346313477
1676383054280240000,9.522240234375,4.513350009918213,-0.07541131973266602,-4.541971206665039
1676383054290240300,9.532240234375,4.501936912536621,-0.03714752197265625,-4.551185607910156
1676383054300240100,9.542240234375,4.510545253753662,-0.14531850814819336,-4.534063339233398
1676383054310240300,9.552240234375,4.5072736740112305,-0.1553959846496582,-4.52924919128418
1676383054320240000,9.562240234375,4.513513565063477,-0.13196659088134766,-4.525026798248291
1676383054330240300,9.572240234375,4.531821250915527,-0.11816024780273438,-4.506902694702148
1676383054340240100,9.582240234375,4.504671096801758,-0.02279186248779297,-4.486968517303467
1676383054350241000,9.592240966796876,4.50837516784668,0.029604434967041016,-4.472543716430664
1676383054360241200,9.6022412109375,4.480880260467529,0.11354207992553711,-4.41575288772583
1676383054370241000,9.612240966796875,4.481801986694336,0.11886787414550781,-4.364274978637695
1676383054380241200,9.6222412109375,4.4679412841796875,0.21094322204589844,-4.354018211364746
1676383054390241000,9.632240966796875,4.47515344619751,0.31101560592651367,-4.3155317306518555
1676383054400241200,9.6422412109375,4.470301628112793,0.4221491813659668,-4.296904563903809
1676383054410241000,9.652240966796874,4.458517074584961,0.5470623970031738,-4.2311625480651855
1676383054420241200,9.6622412109375,4.435202121734619,0.6965985298156738,-4.150171756744385
1676383054430241000,9.672240966796876,4.40525484085083,0.7874302864074707,-4.0850629806518555
1676383054440241200,9.6822412109375,4.361691474914551,0.8655986785888672,-4.007333278656006
1676383054450240300,9.692240234375,4.347570896148682,0.9578695297241211,-3.960200071334839
1676383054460240400,9.702240478515625,4.308427333831787,1.1392850875854492,-3.881862163543701
1676383054470240300,9.712240234375,4.25623893737793,1.2979049682617188,-3.825465202331543
1676383054480240400,9.722240478515625,4.201154708862305,1.4009876251220703,-3.726802349090576
1676383054490240300,9.732240234375,4.131474494934082,1.5686311721801758,-3.6362931728363037
1676383054500240400,9.742240478515624,4.073256015777588,1.8009452819824219,-3.5396761894226074
1676383054510240300,9.752240234375,3.9980087280273438,1.9360370635986328,-3.4659762382507324
1676383054520240400,9.762240478515626,3.9062435626983643,1.989485740661621,-3.3715274333953857
1676383054530240300,9.772240234375,3.786099910736084,2.139031410217285,-3.266420364379883
1676383054540240400,9.782240478515625,3.6731152534484863,2.432802200317383,-3.1438663005828857
1676383054550241000,9.792240966796875,3.5220260620117188,2.703841209411621,-3.0480051040649414
1676383054560241200,9.8022412109375,3.4257519245147705,2.6210269927978516,-2.9141576290130615
1676383054570241000,9.812240966796875,3.304866313934326,2.9024229049682617,-2.794874429702759
1676383054580241200,9.8222412109375,3.1660079956054688,3.1290340423583984,-2.6837942600250244
1676383054590241000,9.832240966796874,3.042034864425659,3.176112174987793,-2.5713305473327637
1676383054600241200,9.8422412109375,2.8680717945098877,3.3490657806396484,-2.4036340713500977
1676383054610241000,9.852240966796876,2.7269582748413086,3.7435054779052734,-2.2787423133850098
1676383054620241200,9.8622412109375,2.6168041229248047,3.6664304733276367,-2.1507060527801514
1676383054630241000,9.872240966796875,2.464104175567627,3.591096878051758,-1.996504306793213
1676383054640241200,9.8822412109375,2.288360834121704,4.082979202270508,-1.828010082244873
1676383054650240300,9.892240234375,2.1468467712402344,4.211045265197754,-1.7001157999038696
1676383054660240100,9.902240234375,2.0154507160186768,3.89663028717041,-1.5360960960388184
1676383054670240300,9.912240234375,1.8808767795562744,4.2800750732421875,-1.3910441398620605
1676383054680240000,9.922240234375,1.729356050491333,4.581343650817871,-1.2794389724731445
1676383054690240300,9.932240234375,1.5978654623031616,4.420363426208496,-1.1293516159057617
1676383054700240100,9.942240234375,1.4230542182922363,4.307548522949219,-0.9861650466918945
1676383054710240300,9.952240234375,1.244488000869751,4.509159088134766,-0.8598480820655823
1676383054720240000,9.962240234375,1.0722466707229614,4.632692337036133,-0.7711983323097229
1676383054730240300,9.972240234375,0.9319976568222046,4.592337608337402,-0.6850743293762207
1676383054740240100,9.982240234375,0.721928060054779,4.673097610473633,-0.5709928274154663
1676383054750241000,9.992240966796874,0.5314364433288574,4.853484153747559,-0.4702771306037903
1676383054760241200,10.0022412109375,0.30633682012557983,4.434211730957031,-0.3476356565952301
1676383054770241000,10.012240966796876,0.08956892043352127,4.698442459106445,-0.23692572116851807
1676383054780241200,10.0222412109375,-0.0975721925497055,4.918118476867676,-0.19831568002700806
1676383054790241000,10.032240966796875,-0.30091392993927,4.552007675170898,-0.08627665042877197
1676383054800241200,10.0422412109375,-0.5459989905357361,4.8783063888549805,0.011737227439880371
1676383054810241000,10.052240966796875,-0.7419596910476685,4.79783821105957,0.10951459407806396
1676383054820241200,10.0622412109375,-0.985480546951294,4.2958574295043945,0.24075931310653687
1676383054830241000,10.072240966796874,-1.1625595092773438,4.753856658935547,0.29919886589050293
1676383054840241200,10.0822412109375,-1.34312903881073,4.84066104888916,0.33767765760421753
1676383054850240500,10.092240478515626,-1.6006643772125244,4.132228851318359,0.5180880427360535
1676383054860240400,10.102240478515625,-1.7960829734802246,4.455140113830566,0.6103662848472595
1676383054870240500,10.112240478515625,-1.9969892501831055,4.349072456359863,0.7303527593612671
1676383054880240400,10.122240478515625,-2.150622844696045,3.4764785766601562,0.8855589032173157
1676383054890240300,10.132240234375,-2.3237709999084473,3.910787582397461,0.9020510911941528
1676383054900240400,10.142240478515625,-2.448629856109619,4.4595537185668945,0.9645075798034668
1676383054910240300,10.152240234375,-2.6128625869750977,3.405872344970703,1.065908670425415
1676383054920240400,10.162240478515624,-2.831320285797119,3.1193552017211914,1.2088322639465332
1676383054930240300,10.172240234375,-2.982586145401001,3.706958770751953,1.2591488361358643
1676383054940240400,10.182240478515626,-3.113039970397949,3.09332275390625,1.3601303100585938
1676383054950241300,10.1922412109375,-3.2506046295166016,2.704962730407715,1.4068574905395508
1676383054960241200,10.2022412109375,-3.3774049282073975,3.113424301147461,1.4282605648040771
1676383054970241300,10.2122412109375,-3.545496702194214,3.0300674438476562,1.5082433223724365
1676383054980241200,10.2222412109375,-3.7203726768493652,2.339138984680176,1.5869596004486084
1676383054990241300,10.2322412109375,-3.8779098987579346,2.3522424697875977,1.609705924987793
1676383055000241200,10.2422412109375,-4.011837005615234,2.506850242614746,1.6414737701416016
1676383055010241300,10.2522412109375,-4.14601469039917,2.2207632064819336,1.6583130359649658
1676383055020241200,10.2622412109375,-4.266186237335205,1.8288335800170898,1.6792349815368652
1676383055030241300,10.2722412109375,-4.424086570739746,1.8433637619018555,1.722632884979248
1676383055040241200,10.2822412109375,-4.570666790008545,1.983332633972168,1.771564245223999
1676383055050240500,10.292240478515625,-4.658526420593262,1.8129615783691406,1.76141357421875
1676383055060240400,10.302240478515625,-4.7841477394104,1.3346452713012695,1.7995355129241943
1676383055070240500,10.312240478515625,-4.880159378051758,1.1654891967773438,1.8208690881729126
1676383055080240400,10.322240478515624,-4.973905086517334,1.426102638244629,1.80782949924469
1676383055090240500,10.332240478515626,-5.047157287597656,1.3289752006530762,1.8583391904830933
1676383055100240400,10.342240478515626,-5.111928462982178,1.0318021774291992,1.8597313165664673
1676383055110240500,10.352240478515625,-5.196760177612305,0.873990535736084,1.8883200883865356
1676383055120240400,10.362240478515625,-5.278908729553223,0.9232726097106934,1.8965877294540405
1676383055130240500,10.372240478515625,-5.325259208679199,0.7866177558898926,1.9066990613937378
1676383055140240400,10.382240478515625,-5.376959323883057,0.5122637748718262,1.9220284223556519
1676383055150241000,10.392240966796875,-5.428380966186523,0.5542206764221191,1.9273334741592407
1676383055160241200,10.4022412109375,-5.4553093910217285,0.6440401077270508,1.9250551462173462
1676383055170241000,10.412240966796874,-5.481297492980957,0.5010972023010254,1.9317127466201782
1676383055180241200,10.4222412109375,-5.526392936706543,0.3611483573913574,1.9450087547302246
1676383055190241000,10.432240966796876,-5.559265613555908,0.3722667694091797,1.9624228477478027
1676383055200241200,10.4422412109375,-5.589154243469238,0.34984445571899414,1.9628658294677734
1676383055210240300,10.452240234375,-5.604072570800781,0.25073814392089844,1.9537746906280518
1676383055220240100,10.462240234375,-5.625287055969238,0.2565779685974121,1.973522663116455
1676383055230240300,10.472240234375,-5.5997314453125,0.3550834655761719,1.9314348697662354
1676383055240240000,10.482240234375,-5.615119934082031,0.3780097961425781,1.924870491027832
1676383055250240300,10.492240234375,-5.612285614013672,0.2539830207824707,1.928468942642212
1676383055260240100,10.502240234375,-5.593157768249512,0.18859386444091797,1.9257309436798096
1676383055270240300,10.512240234375,-5.5670881271362305,0.2632932662963867,1.9220304489135742
1676383055280240000,10.522240234375,-5.556573390960693,0.3471083641052246,1.9001896381378174
1676383055290240300,10.532240234375,-5.525162696838379,0.4182305335998535,1.8413238525390625
1676383055300240100,10.542240234375,-5.501367092132568,0.5197300910949707,1.8174328804016113
1676383055310240300,10.552240234375,-5.456339359283447,0.5175895690917969,1.785386562347412
1676383055320240000,10.562240234375,-5.425928592681885,0.5580377578735352,1.7716875076293945
1676383055330240300,10.572240234375,-5.388688087463379,0.6317958831787109,1.7380869388580322
1676383055340240100,10.582240234375,-5.356686592102051,0.7295703887939453,1.708467960357666
1676383055350241000,10.592240966796876,-5.303325653076172,0.8806424140930176,1.646613359451294
1676383055360241200,10.6022412109375,-5.238863468170166,0.9680695533752441,1.5935757160186768
1676383055370241000,10.612240966796875,-5.1776442527771,1.0806384086608887,1.5611743927001953
1676383055380241200,10.6222412109375,-5.13196325302124,1.1733274459838867,1.5085175037384033
1676383055390241000,10.632240966796875,-5.056242942810059,1.2510795593261719,1.4425196647644043
1676383055400241200,10.6422412109375,-4.989285469055176,1.37440824508667,1.3896338939666748
1676383055410241000,10.652240966796874,-4.90259313583374,1.4670209884643555,1.3517911434173584
1676383055420241200,10.6622412109375,-4.798710346221924,1.390390396118164,1.309715747833252
1676383055430241000,10.672240966796876,-4.698333263397217,1.8217220306396484,1.222212791442871
1676383055440241200,10.6822412109375,-4.603334426879883,1.9564971923828125,1.1510916948318481
1676383055450240300,10.692240234375,-4.490860462188721,1.9616928100585938,1.1023162603378296
1676383055460240100,10.702240234375,-4.360785007476807,2.071493148803711,1.0745251178741455
1676383055470240300,10.712240234375,-4.215854644775391,2.4683942794799805,0.9887251853942871
1676383055480240000,10.722240234375,-4.047205924987793,2.4636030197143555,0.936215877532959
1676383055490240300,10.732240234375,-3.8839101791381836,2.49216365814209,0.8721753358840942
1676383055500240100,10.742240234375,-3.728140354156494,2.7144994735717773,0.8040210008621216
1676383055510241000,10.752240966796874,-3.594048023223877,2.836092948913574,0.7508662939071655
1676383055520241200,10.7622412109375,-3.440816879272461,2.9312562942504883,0.7010165452957153
1676383055530241000,10.772240966796875,-3.265460968017578,3.150693893432617,0.6402871012687683
1676383055540241200,10.7822412109375,-3.0780022144317627,3.386058807373047,0.5688403248786926
1676383055550241000,10.792240966796875,-2.9021189212799072,3.3349809646606445,0.53000408411026
1676383055560241200,10.8022412109375,-2.7321560382843018,3.2210865020751953,0.4379059672355652
1676383055570241000,10.812240966796875,-2.5441970825195312,3.475666046142578,0.3885030746459961
1676383055580241200,10.8222412109375,-2.386176347732544,3.641714096069336,0.3168962001800537
1676383055590241000,10.832240966796874,-2.2104718685150146,3.760356903076172,0.2546271085739136
1676383055600241200,10.8422412109375,-2.031676769256592,3.7481613159179688,0.19704288244247437
1676383055610240300,10.852240234375,-1.8337572813034058,4.000644683837891,0.10626226663589478
1676383055620240400,10.862240478515625,-1.6575247049331665,3.943446159362793,0.01823711395263672
1676383055630240300,10.872240234375,-1.4821733236312866,3.9671621322631836,-0.07709318399429321
1676383055640240400,10.882240478515625,-1.3158364295959473,4.098466873168945,-0.14879679679870605
1676383055650239500,10.892239501953124,-1.1206626892089844,4.227441787719727,-0.22570204734802246
1676383055660239400,10.9022392578125,-0.9312243461608887,4.16518497467041,-0.3030816316604614
1676383055670239500,10.912239501953126,-0.7442907094955444,4.299762725830078,-0.4052560329437256
1676383055680239400,10.9222392578125,-0.5580027103424072,4.312751770019531,-0.5010545253753662
1676383055690239500,10.932239501953125,-0.3414247930049896,4.144250869750977,-0.5694643259048462
1676383055700239400,10.9422392578125,-0.128905788064003,4.172539710998535,-0.6564897298812866
1676383055710239500,10.952239501953125,0.06970949470996857,4.301753997802734,-0.7548744082450867
1676383055720239400,10.9622392578125,0.25423312187194824,4.290012359619141,-0.8098220229148865
1676383055730239500,10.972239501953124,0.4673609137535095,4.130037307739258,-0.8640449643135071
1676383055740239400,10.9822392578125,0.6684481501579285,4.154484748840332,-0.9751169681549072
1676383055750240300,10.992240234375,0.8935650587081909,4.190903663635254,-1.0709867477416992
1676383055760240400,11.002240478515626,1.082213044166565,4.016571998596191,-1.1046812534332275
1676383055770240300,11.012240234375,1.295231580734253,3.9091358184814453,-1.199574589729309
1676383055780240400,11.022240478515625,1.4823142290115356,4.074444770812988,-1.2692451477050781
1676383055790240300,11.032240234375,1.6724931001663208,3.662506103515625,-1.341914415359497
1676383055800240400,11.042240478515625,1.865928292274475,3.5926742553710938,-1.4102891683578491
1676383055810240300,11.052240234375,2.0408096313476562,3.6853113174438477,-1.490966558456421
1676383055820240400,11.062240478515625,2.1853859424591064,3.361027717590332,-1.5238959789276123
1676383055830240300,11.072240234375,2.356332302093506,3.3209972381591797,-1.609037160873413
1676383055840240400,11.082240478515626,2.5005946159362793,3.272899627685547,-1.6789071559906006
1676383055850239700,11.09223974609375,2.665806293487549,3.101620674133301,-1.7356959581375122
1676383055860239600,11.102239501953125,2.8188257217407227,2.7247867584228516,-1.8232812881469727
1676383055870239700,11.11223974609375,2.943866729736328,2.8895606994628906,-1.8924492597579956
1676383055880239600,11.122239501953125,3.073448896408081,2.6376724243164062,-1.9859198331832886
1676383055890239700,11.13223974609375,3.1953186988830566,2.689311981201172,-2.0340421199798584
1676383055900239600,11.142239501953124,3.3065106868743896,2.3927783966064453,-2.0893399715423584
1676383055910240300,11.152240234375,3.444676399230957,2.3100662231445312,-2.173243999481201
1676383055920240400,11.162240478515624,3.592836380004883,2.0551929473876953,-2.2495129108428955
1676383055930240300,11.172240234375,3.6960630416870117,1.9798479080200195,-2.340092182159424
1676383055940240400,11.182240478515626,3.8262388706207275,1.8323907852172852,-2.409214973449707
1676383055950241300,11.1922412109375,3.940188407897949,1.7799530029296875,-2.4664130210876465
1676383055960241200,11.2022412109375,4.054771423339844,1.578129768371582,-2.5357608795166016
1676383055970241300,11.2122412109375,4.150761604309082,1.4500312805175781,-2.58491849899292
1676383055980241200,11.2222412109375,4.245186805725098,1.4208402633666992,-2.64612078666687
1676383055990241300,11.2322412109375,4.348356246948242,1.3015899658203125,-2.712524890899658
1676383056000241200,11.2422412109375,4.440374374389648,1.0076303482055664,-2.759554147720337
1676383056010241300,11.2522412109375,4.513787269592285,0.9669170379638672,-2.786713123321533
1676383056020241200,11.2622412109375,4.595321178436279,0.8131351470947266,-2.820568323135376
1676383056030241300,11.2722412109375,4.66368293762207,0.7688446044921875,-2.853940486907959
1676383056040241200,11.2822412109375,4.712200164794922,0.5490798950195312,-2.9010698795318604
1676383056050240500,11.292240478515625,4.76113748550415,0.5639362335205078,-2.9409608840942383
1676383056060240400,11.302240478515625,4.81736946105957,0.38630104064941406,-2.9413902759552
1676383056070240500,11.312240478515625,4.89139461517334,0.2661590576171875,-2.9679408073425293
1676383056080240400,11.322240478515624,4.905951023101807,0.24780607223510742,-2.997572183609009
1676383056090240500,11.332240478515626,4.947207927703857,0.19703102111816406,-3.0084290504455566
1676383056100240400,11.342240478515626,5.007871150970459,0.06092023849487305,-3.0147855281829834
1676383056110240500,11.352240478515625,5.001216411590576,-0.015103816986083984,-3.023249626159668
1676383056120240400,11.362240478515625,5.036208152770996,0.03235149383544922,-3.0423457622528076
1676383056130240500,11.372240478515625,5.058012008666992,0.004572868347167969,-3.0528042316436768
1676383056140240400,11.382240478515625,5.059111595153809,-0.04857349395751953,-3.0521140098571777
1676383056150241000,11.392240966796875,5.087287902832031,-0.13935613632202148,-3.059039831161499
1676383056160241200,11.4022412109375,5.087246894836426,-0.09811687469482422,-3.051952600479126
1676383056170241000,11.412240966796874,5.075730800628662,-0.06632232666015625,-3.037628650665283
1676383056180241200,11.4222412109375,5.076610088348389,-0.06570959091186523,-3.028226852416992
1676383056190241000,11.432240966796876,5.0821309089660645,-0.08951854705810547,-3.0328493118286133
1676383056200241200,11.4422412109375,5.065958023071289,0.005809783935546875,-2.9915034770965576
1676383056210241000,11.452240966796875,5.0494184494018555,0.011920928955078125,-2.9784891605377197
1676383056220241200,11.4622412109375,5.0346832275390625,0.03875112533569336,-2.967118263244629
1676383056230241000,11.472240966796875,5.009727478027344,0.09842300415039062,-2.95043683052063
1676383056240241200,11.4822412109375,4.984086513519287,0.13355207443237305,-2.921231269836426
1676383056250240300,11.492240234375,4.955117702484131,0.2615079879760742,-2.8748373985290527
1676383056260240100,11.502240234375,4.917905807495117,0.3316230773925781,-2.8471553325653076
1676383056270240300,11.512240234375,4.874792098999023,0.43021535873413086,-2.823720693588257
1676383056280240000,11.522240234375,4.829916954040527,0.49269676208496094,-2.766526460647583
1676383056290240300,11.532240234375,4.810145378112793,0.5868816375732422,-2.7477762699127197
1676383056300240100,11.542240234375,4.772337913513184,0.6915626525878906,-2.6934380531311035
1676383056310240300,11.552240234375,4.714292049407959,0.862431526184082,-2.6568734645843506
1676383056320240000,11.562240234375,4.66701602935791,0.9872589111328125,-2.6045963764190674
1676383056330240300,11.572240234375,4.611766338348389,1.0594978332519531,-2.5251266956329346
1676383056340240100,11.582240234375,4.55125617980957,1.1635007858276367,-2.4809014797210693
1676383056350241000,11.592240966796876,4.490348815917969,1.2446908950805664,-2.4292960166931152
1676383056360241200,11.6022412109375,4.416479587554932,1.3029327392578125,-2.365515947341919
1676383056370241000,11.612240966796875,4.327253818511963,1.5301628112792969,-2.2991981506347656
1676383056380241200,11.6222412109375,4.2562255859375,1.6561260223388672,-2.2041938304901123
1676383056390241000,11.632240966796875,4.149848937988281,1.7932853698730469,-2.1619458198547363
1676383056400241200,11.6422412109375,4.036087989807129,1.8375091552734375,-2.0894885063171387
1676383056410241000,11.652240966796874,3.9441609382629395,2.0311813354492188,-1.9729034900665283
1676383056420241200,11.6622412109375,3.7827937602996826,2.138538360595703,-1.8972578048706055
1676383056430241000,11.672240966796876,3.636887788772583,2.4163970947265625,-1.822533369064331
1676383056440241200,11.6822412109375,3.5258257389068604,2.3572397232055664,-1.7348198890686035
1676383056450240300,11.692240234375,3.3510026931762695,2.5378332138061523,-1.6459105014801025
1676383056460240100,11.702240234375,3.2107067108154297,2.7044763565063477,-1.5513553619384766
1676383056470240300,11.712240234375,3.0269968509674072,3.0026044845581055,-1.4625580310821533
1676383056480240000,11.722240234375,2.8461434841156006,2.9433326721191406,-1.379007339477539
1676383056490240300,11.732240234375,2.6845600605010986,3.0574026107788086,-1.2694389820098877
1676383056500240100,11.742240234375,2.5219905376434326,3.0629873275756836,-1.157884955406189
1676383056510240300,11.752240234375,2.3337604999542236,3.4293861389160156,-1.0631678104400635
1676383056520240000,11.762240234375,2.179450035095215,3.4073963165283203,-0.9660449028015137
1676383056530240300,11.772240234375,2.0079286098480225,3.3945751190185547,-0.8806087970733643
1676383056540240100,11.782240234375,1.817479133605957,3.6284608840942383,-0.7830649614334106
1676383056550241000,11.792240966796875,1.6700094938278198,3.6999692916870117,-0.6950091123580933
1676383056560241200,11.8022412109375,1.486878752708435,3.4371414184570312,-0.578088641166687
1676383056570241000,11.812240966796875,1.3379656076431274,3.721487045288086,-0.5233709812164307
1676383056580241200,11.8222412109375,1.1953470706939697,3.8184728622436523,-0.42297932505607605
1676383056590241000,11.832240966796874,1.0344219207763672,3.733133316040039,-0.36997753381729126
1676383056600241200,11.8422412109375,0.8494935631752014,3.9138832092285156,-0.3058086931705475
1676383056610241000,11.852240966796876,0.6845266222953796,3.891617774963379,-0.2428291141986847
1676383056620241200,11.8622412109375,0.4880448281764984,3.752627372741699,-0.1693909466266632
1676383056630241000,11.872240966796875,0.332553505897522,4.009276390075684,-0.09269523620605469
1676383056640241200,11.8822412109375,0.14488893747329712,3.8833236694335938,-0.0706862211227417
1676383056650240300,11.892240234375,-0.05491582304239273,3.7912120819091797,0.015922367572784424
1676383056660240100,11.902240234375,-0.2633730173110962,4.00797176361084,0.06333327293395996
1676383056670240300,11.912240234375,-0.4729650020599365,3.9586915969848633,0.12407088279724121
1676383056680240000,11.922240234375,-0.6841986775398254,3.592808723449707,0.19800299406051636
1676383056690240300,11.932240234375,-0.87364661693573,3.680685043334961,0.25963294506073
1676383056700240100,11.942240234375,-1.081303358078003,3.9134178161621094,0.3053799867630005
1676383056710240300,11.952240234375,-1.2884780168533325,3.7880115509033203,0.34218502044677734
1676383056720240000,11.962240234375,-1.5097154378890991,3.5652294158935547,0.4153226613998413
1676383056730240300,11.972240234375,-1.7284753322601318,3.5825014114379883,0.510425865650177
1676383056740240100,11.982240234375,-1.8955729007720947,3.480741500854492,0.586948573589325
1676383056750241000,11.992240966796874,-2.095505475997925,3.1859006881713867,0.6434153914451599
1676383056760241000,12.002240966796874,-2.2689075469970703,2.9399023056030273,0.7135580778121948
1676383056770241000,12.012240966796876,-2.4422531127929688,3.2958879470825195,0.7425109148025513
1676383056780241000,12.022240966796875,-2.557816982269287,3.195589065551758,0.7808622121810913
1676383056790241000,12.032240966796875,-2.7256264686584473,2.775477409362793,0.8502236008644104
1676383056800241000,12.042240966796875,-2.91076397895813,2.4516305923461914,0.9213549494743347
1676383056810241000,12.052240966796875,-3.074775457382202,2.8059167861938477,0.9524571299552917
1676383056820241200,12.0622412109375,-3.2008981704711914,2.449734687805176,1.0040647983551025
1676383056830241000,12.072240966796874,-3.3243021965026855,2.1776809692382812,1.0238213539123535
1676383056840241200,12.0822412109375,-3.4531965255737305,2.218907356262207,1.0306470394134521
1676383056850240300,12.092240234375,-3.562666177749634,2.371720314025879,1.0654852390289307
1676383056860240100,12.102240234375,-3.6949825286865234,1.9268121719360352,1.1138137578964233
1676383056870240300,12.112240234375,-3.835207223892212,1.7384233474731445,1.13540780544281
1676383056880240000,12.122240234375,-3.9565012454986572,1.770033836364746,1.1469225883483887
1676383056890240300,12.132240234375,-4.058901309967041,1.7221126556396484,1.151057243347168
1676383056900240100,12.142240234375,-4.151619911193848,1.5054492950439453,1.173822283744812
1676383056910240300,12.152240234375,-4.283358097076416,1.438283920288086,1.181380033493042
1676383056920240000,12.162240234375,-4.383367538452148,1.469268798828125,1.20454740524292
1676383056930240300,12.172240234375,-4.513284683227539,1.2288932800292969,1.2214102745056152
1676383056940240100,12.182240234375,-4.627457618713379,0.9440813064575195,1.2438091039657593
1676383056950241000,12.192240966796875,-4.704672336578369,0.9665956497192383,1.2452569007873535
1676383056960241200,12.2022412109375,-4.767019748687744,1.1288022994995117,1.1992661952972412
1676383056970241000,12.212240966796875,-4.831829071044922,0.8656864166259766,1.2134089469909668
1676383056980241200,12.2222412109375,-4.937249183654785,0.6484861373901367,1.2250783443450928
1676383056990241000,12.232240966796875,-4.999458312988281,0.8065242767333984,1.251211404800415
1676383057000241200,12.2422412109375,-5.060534477233887,0.6798868179321289,1.251556396484375
1676383057010240300,12.252240234375,-5.109941005706787,0.712923526763916,1.2514216899871826
1676383057020240100,12.262240234375,-5.161905765533447,0.3134779930114746,1.2637314796447754
1676383057030240300,12.272240234375,-5.185197830200195,0.5324883460998535,1.2262065410614014
1676383057040240000,12.282240234375,-5.234395980834961,0.476468563079834,1.2487964630126953
1676383057050239200,12.2922392578125,-5.254298210144043,0.26019763946533203,1.2812843322753906
1676383057060239400,12.3022392578125,-5.297145366668701,0.20650291442871094,1.278053879737854
1676383057070239200,12.3122392578125,-5.316916465759277,0.24790430068969727,1.2821838855743408
1676383057080239400,12.3222392578125,-5.337610244750977,0.14505863189697266,1.2773699760437012
1676383057090239500,12.332239501953126,-5.337284564971924,0.10834455490112305,1.249405860900879
1676383057100239400,12.3422392578125,-5.3110880851745605,0.25504255294799805,1.2176164388656616
1676383057110239200,12.3522392578125,-5.311410903930664,0.3310990333557129,1.2203069925308228
1676383057120239400,12.3622392578125,-5.301449775695801,0.21428823471069336,1.216303825378418
1676383057130239200,12.3722392578125,-5.290590763092041,0.1433873176574707,1.2015206813812256
1676383057140239400,12.3822392578125,-5.285935878753662,0.1926712989807129,1.205162763595581
1676383057150240300,12.392240234375,-5.258514404296875,0.27823352813720703,1.1580015420913696
1676383057160240000,12.402240234375,-5.210393905639648,0.3544449806213379,1.1344587802886963
1676383057170240300,12.412240234375,-5.1699090003967285,0.3779926300048828,1.1225435733795166
1676383057180240100,12.422240234375,-5.1198320388793945,0.46599864959716797,1.0865293741226196
1676383057190240300,12.432240234375,-5.074302673339844,0.5202732086181641,1.067134141921997
1676383057200240000,12.442240234375,-5.0329718589782715,0.5479435920715332,1.0619666576385498
1676383057210240300,12.452240234375,-4.996114253997803,0.6188163757324219,1.0255589485168457
1676383057220240400,12.462240478515625,-4.926767349243164,0.7284421920776367,0.9915996193885803
1676383057230240300,12.472240234375,-4.873990058898926,0.8915042877197266,0.9480127096176147
1676383057240240400,12.482240478515624,-4.830764293670654,0.9958343505859375,0.887360692024231
1676383057250239500,12.492239501953126,-4.756555080413818,1.027383804321289,0.8571896553039551
1676383057260239400,12.5022392578125,-4.696887016296387,1.0774383544921875,0.835867166519165
1676383057270239500,12.512239501953125,-4.621148109436035,1.1513195037841797,0.7941128015518188
1676383057280239400,12.5222392578125,-4.535935878753662,1.3160324096679688,0.7343600392341614
1676383057290239500,12.532239501953125,-4.446591854095459,1.4716482162475586,0.692243754863739
1676383057300239400,12.5422392578125,-4.355649471282959,1.5706233978271484,0.6555284857749939
1676383057310240300,12.552240234375,-4.244391441345215,1.5751762390136719,0.6095710396766663
1676383057320240400,12.562240478515625,-4.1387457847595215,1.5929746627807617,0.5722817778587341
1676383057330240300,12.572240234375,-4.012114524841309,1.8625669479370117,0.5517503619194031
1676383057340240400,12.582240478515626,-3.8862736225128174,2.008401870727539,0.4977878928184509
1676383057350241300,12.5922412109375,-3.726128339767456,2.0848255157470703,0.4635530114173889
1676383057360241200,12.6022412109375,-3.597038745880127,2.1807785034179688,0.41333967447280884
1676383057370241300,12.6122412109375,-3.4463655948638916,2.3465280532836914,0.37364131212234497
1676383057380241200,12.6222412109375,-3.27176833152771,2.395334243774414,0.3326324224472046
1676383057390241300,12.6322412109375,-3.1110637187957764,2.468214988708496,0.2806274890899658
1676383057400241200,12.6422412109375,-2.959036350250244,2.553086280822754,0.22988426685333252
1676383057410240300,12.652240234375,-2.7776918411254883,2.6612234115600586,0.2045978307723999
1676383057420240400,12.662240478515624,-2.6163582801818848,2.7924842834472656,0.16900897026062012
1676383057430240300,12.672240234375,-2.4294698238372803,2.915196418762207,0.1115449070930481
1676383057440240400,12.682240478515626,-2.258798599243164,2.931774139404297,0.02980506420135498
1676383057450239500,12.692239501953125,-2.0661463737487793,2.9359169006347656,0.012511968612670898
1676383057460239400,12.7022392578125,-1.9015381336212158,3.22946834564209,-0.055003196001052856
1676383057470239500,12.712239501953125,-1.7383450269699097,3.1853580474853516,-0.09133240580558777
1676383057480239400,12.7222392578125,-1.5695403814315796,3.2444419860839844,-0.15156126022338867
