time,seconds_elapsed,z,y,x
1676383044927349000,0.169348876953125,4.6734819412231445,8.909123420715332,1.0247182846069336
1676383044937350000,0.179349853515625,4.730942726135254,8.971372604370117,1.0007762908935547
1676383044947349000,0.189348876953125,4.800374507904053,9.024045944213867,0.9648633003234863
1676383044957348400,0.199348388671875,4.606443881988525,9.016862869262695,0.9169792532920837
1676383044967348200,0.20934814453125,4.264073371887207,9.220370292663574,0.9768342971801758
1676383044977347800,0.219347900390625,4.14915132522583,9.557952880859375,0.9672574996948242
1676383044987348000,0.229347900390625,4.216189384460449,9.483732223510742,0.8068459630012512
1676383044997347600,0.23934765625,4.548983097076416,9.115025520324707,0.6200982332229614
1676383045007347200,0.24934716796875,5.269937038421631,8.748712539672852,0.5554547905921936
1676383045017347300,0.259347412109375,5.669768810272217,8.734347343444824,0.6847416758537292
1676383045027347200,0.26934716796875,5.803843975067139,8.514080047607422,0.7469909191131592
1676383045037347000,0.27934716796875,5.765536785125732,8.265083312988281,0.6392518281936646
1676383045047344600,0.2893447265625,6.048052787780762,8.430283546447754,0.26336219906806946
1676383045057344500,0.299344482421875,6.112696170806885,8.638579368591309,-0.19632454216480255
1676383045067344600,0.3093447265625,5.985803604125977,8.798990249633789,-0.524330198764801
1676383045077344500,0.319344482421875,6.246771335601807,8.968978881835938,-0.4381389021873474
1676383045087344400,0.329344482421875,6.390423774719238,9.179668426513672,-0.040701430290937424
1676383045097344500,0.339344482421875,6.1629743576049805,9.292196273803711,0.7158663272857666
1676383045107344400,0.349344482421875,5.585971832275391,9.419088363647461,1.6687586307525635
1676383045117344500,0.359344482421875,3.2537200450897217,9.431059837341309,2.073378562927246
1676383045127344400,0.369344482421875,4.2329487800598145,8.80856704711914,2.9735984802246094
1676383045137344300,0.37934423828125,4.034229755401611,8.638579368591309,2.9951462745666504
1676383045147343400,0.38934326171875,4.185064792633057,8.365639686584473,2.7461493015289307
1676383045157342200,0.39934228515625,4.388571739196777,7.7742719650268555,2.6647465229034424
1676383045167340800,0.4093408203125,4.122815132141113,7.623437404632568,2.849100112915039
1676383045177339600,0.419339599609375,3.531447410583496,8.020874977111816,3.1435868740081787
1676383045187338800,0.4293388671875,2.9065608978271484,8.269871711730957,3.399766445159912
1676383045197337600,0.439337646484375,2.5498247146606445,8.41352367401123,3.4787750244140625
1676383045207336400,0.44933642578125,2.4396915435791016,8.509291648864746,3.464409828186035
1676383045217335600,0.45933544921875,2.5665841102600098,8.612242698669434,3.3231520652770996
1676383045227334700,0.469334716796875,3.0885202884674072,8.794201850891113,3.093308687210083
1676383045237333800,0.479333740234375,3.8163576126098633,9.047987937927246,2.82515811920166
1676383045247332900,0.489332763671875,4.077325344085693,9.138967514038086,3.1507694721221924
1676383045257332000,0.49933203125,3.845088005065918,9.019257545471191,3.97916316986084
1676383045267331800,0.509331787109375,3.6080620288848877,8.528446197509766,4.314351558685303
1676383045277332000,0.51933203125,3.864241600036621,8.013691902160645,3.840299606323242
1676383045287331800,0.529331787109375,4.2760443687438965,7.640196800231934,3.313575267791748
1676383045297332000,0.53933203125,4.879383087158203,7.558794021606445,2.892195701599121
1676383045307332000,0.54933203125,5.152621269226074,7.829339027404785,2.9305028915405273
1676383045317332000,0.55933203125,5.308244228363037,8.1046724319458,3.270479440689087
1676383045327331800,0.569331787109375,5.384859085083008,8.403946876525879,3.399766445159912
1676383045337332000,0.57933203125,5.42795467376709,8.43746566772461,3.3279404640197754
1676383045347332900,0.589332763671875,4.9060187339782715,8.576330184936523,3.6367924213409424
1676383045357332700,0.599332763671875,4.584896087646484,8.61703109741211,4.07014274597168
1676383045367332900,0.609332763671875,4.034229755401611,8.399158477783203,4.32871675491333
1676383045377332700,0.619332763671875,3.550601005554199,8.444648742675781,4.458003520965576
1676383045387332900,0.629332763671875,3.445256233215332,8.538022994995117,4.467580318450928
1676383045397332700,0.639332763671875,3.5266590118408203,8.696040153503418,4.180276393890381
1676383045407332900,0.649332763671875,3.7900211811065674,8.839692115783691,3.773261785507202
1676383045417332700,0.659332763671875,3.88818359375,8.980949401855469,3.1196448802948
1676383045427332900,0.669332763671875,3.8953661918640137,8.976161003112793,2.5713725090026855
1676383045437332700,0.679332763671875,4.039018154144287,8.861239433288574,2.537853717803955
1676383045447332600,0.68933251953125,4.395754337310791,8.961795806884766,2.655169725418091
1676383045457333500,0.69933349609375,4.675876140594482,8.95461368560791,2.717418909072876
1676383045467334400,0.70933447265625,4.802768707275391,8.92348861694336,2.5665841102600098
1676383045477335300,0.719335205078125,4.944325923919678,8.719982147216797,2.762908697128296
1676383045487336200,0.729336181640625,4.881777286529541,8.533234596252441,3.3949780464172363
1676383045497337000,0.739337158203125,4.311957359313965,8.475772857666016,3.8570590019226074
1676383045507338000,0.749337890625,2.9759926795959473,8.583512306213379,4.314351558685303
1676383045517339000,0.7593388671875,1.8507179021835327,8.815750122070312,5.174169063568115
1676383045527339800,0.76933984375,1.7094600200653076,8.578723907470703,5.353734493255615
1676383045537340700,0.779340576171875,2.1811177730560303,9.024045944213867,5.313032627105713
1676383045547341600,0.789341552734375,2.6599581241607666,9.378387451171875,5.224447250366211
1676383045557342500,0.799342529296875,2.9688100814819336,9.177274703979492,5.095160484313965
1676383045567342600,0.809342529296875,3.3016040325164795,8.61703109741211,5.083189487457275
1676383045577342500,0.819342529296875,3.620033025741577,8.047211647033691,5.121496677398682
1676383045587342600,0.829342529296875,3.7684733867645264,7.755118370056152,5.092766284942627
1676383045597342500,0.839342529296875,4.05817174911499,7.738358974456787,5.068824291229248
1676383045607342600,0.849342529296875,4.357447147369385,8.025663375854492,4.862623691558838
1676383045617342500,0.859342529296875,4.67827033996582,8.499714851379395,4.503493309020996
1676383045627342600,0.869342529296875,5.008969306945801,8.439860343933105,4.189853191375732
1676383045637342500,0.879342529296875,5.305850028991699,8.138191223144531,3.8355112075805664
1676383045647341600,0.889341552734375,4.982633113861084,7.791031837463379,3.4787750244140625
1676383045657341700,0.899341796875,3.864241600036621,7.4678144454956055,3.9264907836914062
1676383045667341600,0.909341552734375,3.2776620388031006,8.083124160766602,4.946720123291016
1676383045677341700,0.919341796875,3.045424461364746,9.038411140441895,5.624279022216797
1676383045687341600,0.929341552734375,2.7054479122161865,9.641749382019043,5.794267177581787
1676383045697341700,0.939341796875,2.4588451385498047,9.488520622253418,5.454290866851807
1676383045707341800,0.949341796875,2.7509377002716064,9.392752647399902,5.047276496887207
1676383045717341700,0.959341796875,3.19865345954895,9.3735990524292,4.807557106018066
1676383045727341600,0.969341552734375,3.6128504276275635,9.277831077575684,4.73573112487793
1676383045737341700,0.979341796875,3.9240965843200684,8.997709274291992,4.922778129577637
1676383045747342600,0.989342529296875,3.950432777404785,8.952219009399414,5.071218490600586
1676383045757342500,0.999342529296875,3.6822822093963623,8.466196060180664,4.985027313232422
1676383045767342600,1.009342529296875,3.0166940689086914,8.25311279296875,4.668693542480469
1676383045777342500,1.019342529296875,2.698265314102173,8.315361976623535,4.467580318450928
1676383045787342600,1.029342529296875,2.6623523235321045,8.763077735900879,4.173093795776367
1676383045797342500,1.039342529296875,2.2673089504241943,8.810961723327637,3.995922565460205
1676383045807342600,1.049342529296875,1.5131354331970215,8.985737800598145,4.122815132141113
1676383045817342500,1.059342529296875,0.586579442024231,8.95700740814209,4.572925090789795
1676383045827342600,1.069342529296875,-0.07422025501728058,8.846874237060547,5.056853294372559
1676383045837342500,1.079342529296875,-0.5219359993934631,8.787019729614258,5.504569053649902
1676383045847341600,1.089341552734375,-0.950498104095459,8.583512306213379,5.890035629272461
1676383045857341700,1.099341796875,-1.1109095811843872,8.545205116271973,6.093542575836182
1676383045867341600,1.109341552734375,-0.9720458984375,8.542811393737793,6.201281547546387
1676383045877341700,1.119341796875,-0.6703764796257019,8.672098159790039,6.234800338745117
1676383045887341600,1.129341552734375,-0.22505496442317963,8.652944564819336,6.107907772064209
1676383045897341700,1.139341796875,0.11971008777618408,8.506897926330566,5.6314616203308105
1676383045907341800,1.149341796875,0.10055647045373917,8.375216484069824,5.071218490600586
1676383045917341700,1.159341796875,-0.1388636976480484,8.490138053894043,4.790797710418701
1676383045927341600,1.169341552734375,-0.38307225704193115,8.947430610656738,5.049670696258545
1676383045937341700,1.179341796875,-0.6584054827690125,8.868422508239746,5.329792022705078
1676383045947342600,1.189342529296875,-0.9241618514060974,8.370428085327148,5.68892240524292
1676383045957342500,1.199342529296875,-0.7709329724311829,7.922712802886963,6.143820762634277
1676383045967342600,1.209342529296875,-0.5051765441894531,7.228394031524658,6.586748123168945
1676383045977342700,1.2193427734375,-0.5770025849342346,6.704063892364502,6.895600318908691
1676383045987342600,1.229342529296875,-0.7493851184844971,6.938695907592773,7.087136268615723
1676383045997342500,1.239342529296875,-0.9816226959228516,7.175721645355225,6.950666904449463
1676383046007342600,1.249342529296875,-1.173158884048462,7.743147373199463,6.402394771575928
1676383046017342500,1.259342529296875,-0.9097966551780701,7.850886821746826,5.885247230529785
1676383046027342600,1.269342529296875,-0.40940847992897034,7.853281021118164,5.356128692626953
1676383046037342500,1.279342529296875,0.12689268589019775,7.611466407775879,4.843470096588135
1676383046047341600,1.289341552734375,0.4836287498474121,7.8652520179748535,4.3622355461120605
1676383046057341700,1.299341796875,0.11971008777618408,7.965808391571045,4.062960147857666
1676383046067341800,1.309341796875,-0.7422025203704834,7.874828815460205,4.261679172515869
1676383046077341700,1.319341796875,-1.802833914756775,8.61463737487793,4.390965938568115
1676383046087341800,1.329341796875,-1.845929503440857,8.499714851379395,4.441244125366211
1676383046097341700,1.339341796875,-1.9608511924743652,7.798214435577393,4.2760443687438965
1676383046107341800,1.349341796875,-2.2864625453948975,7.771877765655518,4.20421838760376
1676383046117341700,1.359341796875,-2.7892448902130127,7.922712802886963,4.280832767486572
1676383046127341600,1.369341552734375,-3.869029998779297,7.2882490158081055,4.3191399574279785
1676383046137341700,1.379341796875,-4.910807132720947,6.907571315765381,4.039018154144287
1676383046147341800,1.389341796875,-5.7200469970703125,6.979397296905518,3.708618402481079
1676383046157340700,1.399340576171875,-6.323386192321777,7.333739280700684,3.399766445159912
1676383046167339800,1.40933984375,-6.500556945800781,7.252336025238037,3.4165258407592773
1676383046177339000,1.4193388671875,-6.323386192321777,6.876446723937988,3.469198226928711
1676383046187338000,1.429337890625,-5.746383190155029,7.2427592277526855,3.3518824577331543
1676383046197337000,1.439337158203125,-5.4159836769104,6.993762493133545,3.066972494125366
1676383046207336200,1.449336181640625,-5.2364182472229,6.902782917022705,3.07415509223938
1676383046217335300,1.459335205078125,-5.423166275024414,6.979397296905518,3.246537446975708
1676383046227334400,1.46933447265625,-5.791872978210449,6.665756702423096,3.308786630630493
1676383046237333500,1.47933349609375,-5.906795024871826,6.689698696136475,3.0526070594787598
1676383046247332600,1.48933251953125,-6.8501105308532715,6.519710540771484,2.853888511657715
1676383046260113200,1.502113037109375,-7.771877765655518,7.429507255554199,2.80361008644104
1676383046270112300,1.5121123046875,-8.260294914245605,7.738358974456787,2.7892448902130127
1676383046280111400,1.522111328125,-8.736741065979004,7.331345081329346,2.827552318572998
1676383046290110500,1.5321103515625,-8.171710014343262,7.807791233062744,2.3247697353363037
1676383046300109600,1.542109619140625,-7.520486831665039,7.369652271270752,1.7334020137786865
1676383046310108700,1.552108642578125,-7.611466407775879,6.361693382263184,0.569819986820221
1676383046320108000,1.56210791015625,-7.103895664215088,6.555623531341553,-0.6967126727104187
1676383046330108000,1.57210791015625,-6.43351936340332,7.087136268615723,-0.689530074596405
1676383046340108000,1.58210791015625,-5.406406879425049,7.103895664215088,0.5889736413955688
1676383046350109000,1.59210888671875,-5.296273231506348,7.0464348793029785,1.7477672100067139
1676383046360108800,1.60210888671875,-5.516540050506592,6.761524677276611,2.559401512145996
1676383046370109000,1.61210888671875,-5.86848783493042,6.620266914367676,3.064578056335449
1676383046380108800,1.62210888671875,-5.9427080154418945,6.505345344543457,2.631227731704712
1676383046390109000,1.63210888671875,-5.928342819213867,6.749553680419922,1.922544002532959
1676383046400108800,1.64210888671875,-6.447884559631348,7.170933246612549,1.357512354850769
1676383046410108700,1.652108642578125,-7.094318866729736,6.84053373336792,1.036689281463623
1676383046420108800,1.66210888671875,-7.058405876159668,6.452672958374023,0.7948749661445618
1676383046430109000,1.67210888671875,-6.584353923797607,6.273107528686523,0.6177040338516235
1676383046440108800,1.68210888671875,-6.275501728057861,5.607519626617432,0.4644751250743866
1676383046450109000,1.69210888671875,-6.543652534484863,5.617096424102783,0.0454898327589035
1676383046460109800,1.70210986328125,-7.8652520179748535,6.340145587921143,-0.9313444495201111
1676383046470110700,1.71211083984375,-8.609848976135254,6.026504993438721,-1.7310078144073486
1676383046480111400,1.722111328125,-8.212410926818848,6.596324920654297,-2.0159177780151367
1676383046490112300,1.7321123046875,-7.824550628662109,6.443096160888672,-1.534683346748352
1676383046500113200,1.742113037109375,-7.683292388916016,6.071994781494141,-0.7110779285430908
1676383046510114000,1.752114013671875,-7.676109790802002,6.0743889808654785,0.021547814831137657
1676383046520115000,1.762114990234375,-8.025663375854492,6.287472724914551,0.8044517636299133
1676383046530115800,1.77211572265625,-8.406341552734375,6.332962989807129,1.091755986213684
1676383046540116700,1.78211669921875,-8.200440406799316,6.198887348175049,0.9648633003234863
1676383046550117600,1.79211767578125,-7.448660850524902,5.806238174438477,0.3758896589279175
1676383046560118500,1.802118408203125,-6.730400085449219,5.576395034790039,-0.19632454216480255
1676383046570119400,1.812119384765625,-6.218040943145752,5.746383190155029,-0.6943184733390808
1676383046580120300,1.822120361328125,-6.115090370178223,5.844545841217041,-1.015141487121582
1676383046590121200,1.832121337890625,-6.507739543914795,5.973832607269287,-1.1276689767837524
1676383046600122000,1.8421220703125,-7.309797286987305,6.136638164520264,-1.460463047027588
1676383046610123000,1.852123046875,-7.8867998123168945,6.021716594696045,-1.2018892765045166
1676383046620123600,1.86212353515625,-8.444648742675781,5.3920416831970215,-0.9552865028381348
1676383046630123800,1.872123779296875,-9.1940336227417,5.3920416831970215,-0.727837324142456
1676383046640123600,1.88212353515625,-10.043975830078125,5.2986674308776855,-0.47165772318840027
1676383046650122800,1.892122802734375,-10.391134262084961,5.696105003356934,-0.5003881454467773
1676383046660123000,1.902122802734375,-10.17565631866455,5.827786445617676,-0.6799532771110535
1676383046670122800,1.912122802734375,-9.651326179504395,5.633855819702148,-0.7422025203704834
1676383046680123000,1.922122802734375,-9.07911205291748,5.5452704429626465,-0.768538773059845
1676383046690122800,1.932122802734375,-8.533234596252441,5.76793098449707,-0.6799532771110535
1676383046700123000,1.942122802734375,-8.238747596740723,6.0959367752075195,-0.45010992884635925
1676383046710122800,1.952122802734375,-8.025663375854492,6.170156955718994,-0.05746084079146385
1676383046720123000,1.962122802734375,-7.862857818603516,6.261136531829834,0.2561795711517334
1676383046730122800,1.972122802734375,-7.721599578857422,5.978621006011963,0.5841852426528931
1676383046740122600,1.98212255859375,-7.41753625869751,5.851728439331055,0.6009446382522583
1676383046750123500,1.99212353515625,-7.139808654785156,5.945102214813232,0.3998316824436188
1676383046760123600,2.00212353515625,-7.0464348793029785,6.012139797210693,0.14844051003456116
1676383046770123500,2.01212353515625,-7.424718856811523,6.349722385406494,-0.06703764945268631
1676383046780123600,2.02212353515625,-7.3576812744140625,6.335357189178467,0.07900865375995636
1676383046790123500,2.03212353515625,-7.431901454925537,6.186916351318359,0.15562310814857483
1676383046800123600,2.04212353515625,-7.305008888244629,6.048052787780762,0.08619125932455063
1676383046810123300,2.052123291015625,-6.996156692504883,5.72244119644165,0.05746084079146385
1676383046820123100,2.062123046875,-6.809409141540527,5.925948619842529,-0.06703764945268631
1676383046830123300,2.072123291015625,-6.672939300537109,6.213252544403076,-0.15562310814857483
1676383046840123100,2.082123046875,-6.773495674133301,6.165368556976318,-0.1628057211637497
1676383046850122500,2.09212255859375,-6.91954231262207,6.086359977722168,-0.019153613597154617
1676383046860122400,2.102122314453125,-6.9602437019348145,5.674557209014893,0.2992752194404602
1676383046870122500,2.11212255859375,-7.072771072387695,5.449502468109131,0.5434837937355042
1676383046880122400,2.122122314453125,-7.149385452270508,5.4159836769104,0.6655880808830261
1676383046890122200,2.132122314453125,-7.14699125289917,5.526116847991943,0.5434837937355042
1676383046900122400,2.142122314453125,-7.312191486358643,5.8349690437316895,0.17956513166427612
1676383046910122200,2.152122314453125,-7.767089366912842,5.911583423614502,-0.15801730751991272
1676383046920122400,2.162122314453125,-8.061576843261719,5.660192012786865,-0.43335050344467163
1676383046930122200,2.172122314453125,-8.619425773620605,5.650615215301514,-0.4668693244457245
1676383046940122400,2.182122314453125,-8.8971529006958,5.533299446105957,-0.6200982332229614
1676383046950123300,2.192123291015625,-8.765471458435059,5.2986674308776855,-0.363918662071228
1676383046960123100,2.202123046875,-8.569147109985352,5.265148639678955,0.2801215946674347
1676383046970123300,2.212123291015625,-8.277054786682129,5.466261863708496,0.4572925269603729
1676383046980123100,2.222123046875,-7.922712802886963,5.514145851135254,0.45010992884635925
1676383046990123300,2.232123291015625,-7.527669429779053,5.494992256164551,0.40940847992897034
1676383047000123100,2.242123046875,-7.302614688873291,5.257966041564941,0.2801215946674347
1676383047010123300,2.252123291015625,-7.273883819580078,5.1909284591674805,0.026336219161748886
1676383047020123100,2.262123046875,-7.525275230407715,5.384859085083008,-0.15083470940589905
1676383047030123300,2.272123291015625,-7.915530204772949,5.245995044708252,-0.17477671802043915
1676383047040123100,2.282123046875,-8.461407661437988,5.260360240936279,-0.07661445438861847
1676383047050122200,2.292122314453125,-8.710405349731445,5.33697509765625,-0.08619125932455063
1676383047060122400,2.302122314453125,-8.753500938415527,5.214870452880859,-0.016759412363171577
1676383047070122200,2.312122314453125,-8.77265453338623,5.164592266082764,-0.05985504388809204
1676383047080122400,2.322122314453125,-9.021651268005371,5.260360240936279,-0.22026655077934265
1676383047090122500,2.33212255859375,-9.311349868774414,5.226841449737549,-0.2753331959247589
1676383047100122400,2.342122314453125,-9.25867748260498,5.186140060424805,-0.19393034279346466
1676383047110122800,2.352122802734375,-9.184456825256348,5.001786708831787,0.040701430290937424
1676383047120122600,2.36212255859375,-9.004891395568848,5.023334503173828,0.2537853717803955
1676383047130122800,2.372122802734375,-8.7391357421875,5.164592266082764,0.24181437492370605
1676383047140122600,2.38212255859375,-8.375216484069824,5.121496677398682,0.15083470940589905
1676383047150123500,2.39212353515625,-8.181286811828613,5.310638427734375,-0.028730420395731926
1676383047160123600,2.40212353515625,-8.174103736877441,5.310638427734375,-0.12689268589019775
1676383047170123500,2.41212353515625,-8.47098445892334,5.152621269226074,-0.28730419278144836
1676383047180123600,2.42212353515625,-8.626607894897461,5.207687854766846,-0.4836287498474121
1676383047190123500,2.43212353515625,-8.645761489868164,5.155015468597412,-0.6392518281936646
1676383047200123600,2.44212353515625,-8.588300704956055,5.207687854766846,-0.6919242739677429
1676383047210123500,2.45212353515625,-8.415918350219727,5.2555718421936035,-0.6703764796257019
1676383047220123600,2.46212353515625,-8.25550651550293,5.222053050994873,-0.5841852426528931
1676383047230123500,2.47212353515625,-8.150161743164062,5.265148639678955,-0.31603461503982544
1676383047240123600,2.48212353515625,-8.047211647033691,5.219658851623535,-0.15322890877723694
1676383047250122800,2.492122802734375,-8.080730438232422,5.214870452880859,-0.181959331035614
1676383047260122600,2.50212255859375,-8.176498413085938,5.159803867340088,-0.24660277366638184
1676383047270122800,2.512122802734375,-8.387187957763672,4.9706621170043945,-0.3232172429561615
1676383047280122600,2.52212255859375,-8.4015531539917,5.224447250366211,-0.5434837937355042
1676383047290122800,2.532122802734375,-8.449437141418457,5.358522891998291,-0.7829039692878723
1676383047300122600,2.54212255859375,-8.418312072753906,5.365705490112305,-0.9648633003234863
1676383047310122800,2.552122802734375,-8.202834129333496,5.32739782333374,-0.8810662031173706
1676383047320122600,2.56212255859375,-7.922712802886963,5.33697509765625,-0.6560112833976746
1676383047330122800,2.572122802734375,-7.606678009033203,5.195716857910156,-0.31603461503982544
1676383047340122600,2.58212255859375,-7.8006086349487305,5.018546104431152,-0.090979665517807
1676383047350123500,2.59212353515625,-8.186075210571289,4.977844715118408,0.021547814831137657
1676383047360123600,2.60212353515625,-8.387187957763672,5.042488098144531,0.028730420395731926
1676383047370123500,2.61212353515625,-8.365639686584473,4.9275665283203125,-0.011971008032560349
1676383047380123600,2.62212353515625,-8.238747596740723,4.946720123291016,-0.07900865375995636
1676383047390123500,2.63212353515625,-8.16452693939209,5.013757705688477,-0.1388636976480484
1676383047400123600,2.64212353515625,-8.10706615447998,4.845864295959473,-0.26815059781074524
1676383047410123500,2.65212353515625,-8.303390502929688,4.886565685272217,-0.4836287498474121
1676383047420123600,2.66212353515625,-8.447042465209961,4.9060187339782715,-0.5506663918495178
1676383047430123500,2.67212353515625,-8.50210952758789,4.7405195236206055,-0.5123591423034668
1676383047440123600,2.68212353515625,-8.509291648864746,4.881777286529541,-0.47884035110473633
1676383047450122800,2.692122802734375,-8.538022994995117,4.8937482833862305,-0.4812345504760742
1676383047460122600,2.70212255859375,-8.490138053894043,4.891354084014893,-0.4908113479614258
1676383047470122800,2.712122802734375,-8.312967300415039,4.94193172454834,-0.5793967843055725
1676383047480122600,2.72212255859375,-8.049605369567871,4.829104900360107,-0.5985504388809204
1676383047490122800,2.732122802734375,-7.9945387840271,4.903624534606934,-0.7182605266571045
1676383047500122600,2.74212255859375,-7.927501201629639,4.958691120147705,-0.8307880163192749
1676383047510122800,2.752122802734375,-7.980173587799072,4.843470096588135,-0.8092401623725891
1676383047520122600,2.76212255859375,-8.047211647033691,4.953902721405029,-0.6871358752250671
1676383047530122800,2.772122802734375,-8.008903503417969,4.980238914489746,-0.5434837937355042
1676383047540122600,2.78212255859375,-7.958625793457031,5.02094030380249,-0.42616790533065796
1676383047550123500,2.79212353515625,-7.862857818603516,5.028122901916504,-0.35913026332855225
1676383047560123400,2.802123291015625,-7.6425909996032715,4.994604110717773,-0.23942017555236816
1676383047570123500,2.81212353515625,-7.544428825378418,4.898836135864258,-0.1149216815829277
1676383047580123400,2.822123291015625,-7.652167797088623,4.750096321105957,-0.08858546614646912
1676383047590123500,2.83212353515625,-7.793426036834717,4.786009311676025,-0.10055647045373917
1676383047600123600,2.84212353515625,-7.958625793457031,4.817133903503418,-0.16998831927776337
1676383047610123500,2.85212353515625,-8.171710014343262,4.946720123291016,-0.2585737705230713
1676383047620123600,2.86212353515625,-8.463802337646484,4.9491143226623535,-0.33758243918418884
1676383047630123500,2.87212353515625,-8.65054988861084,4.958691120147705,-0.3711012601852417
1676383047640123600,2.88212353515625,-8.734347343444824,4.853046894073486,-0.3687070608139038
1676383047650122800,2.892122802734375,-8.696040153503418,4.754884719848633,-0.2801215946674347
1676383047660122600,2.90212255859375,-8.638579368591309,4.69024133682251,-0.13407529890537262
1676383047670122800,2.912122802734375,-8.540416717529297,4.752490520477295,-0.27054479718208313
1676383047680122600,2.92212255859375,-8.482955932617188,4.812345504760742,-0.42616790533065796
1676383047690122800,2.932122802734375,-8.418312072753906,4.829104900360107,-0.4812345504760742
1676383047700122600,2.94212255859375,-8.394370079040527,4.886565685272217,-0.4812345504760742
1676383047710122800,2.952122802734375,-8.444648742675781,4.913201332092285,-0.43095630407333374
1676383047720122600,2.96212255859375,-8.492532730102539,4.901230335235596,-0.36152446269989014
1676383047730122800,2.972122802734375,-8.552388191223145,4.807557106018066,-0.26096799969673157
1676383047740122600,2.98212255859375,-8.573935508728027,4.802768707275391,-0.1412578970193863
1676383047750123500,2.99212353515625,-8.561964988708496,4.730942726135254,-0.08140286058187485
1676383047760123600,3.00212353515625,-8.61703109741211,4.73573112487793,-0.07422025501728058
1676383047770123500,3.01212353515625,-8.696040153503418,4.78122091293335,-0.038307227194309235
1676383047780123600,3.02212353515625,-8.755894660949707,4.76924991607666,0.011971008032560349
1676383047790123500,3.03212353515625,-8.779836654663086,4.764461517333984,0.05985504388809204
1676383047800123600,3.04212353515625,-8.787019729614258,4.786009311676025,0.035913024097681046
1676383047810123500,3.05212353515625,-8.686463356018066,4.704606533050537,-0.038307227194309235
1676383047820123600,3.06212353515625,-8.554781913757324,4.6950297355651855,-0.19393034279346466
1676383047830123500,3.07212353515625,-8.576330184936523,4.623203277587891,-0.3902548849582672
1676383047840123600,3.08212353515625,-8.645761489868164,4.702212333679199,-0.5626373887062073
1676383047850122800,3.092122802734375,-8.672098159790039,4.790797710418701,-0.6153098344802856
1676383047860123000,3.102122802734375,-8.667309761047363,4.774038314819336,-0.48602294921875
1676383047870122800,3.112122802734375,-8.655338287353516,4.774038314819336,-0.3256114423274994
1676383047880123000,3.122122802734375,-8.674491882324219,4.764461517333984,-0.15322890877723694
1676383047890122800,3.132122802734375,-8.576330184936523,4.663905143737793,0.021547814831137657
1676383047900122600,3.14212255859375,-8.473379135131836,4.707000732421875,0.05027823522686958
1676383047910122800,3.152122802734375,-8.451830863952637,4.733336925506592,0.028730420395731926
1676383047920122600,3.16212255859375,-8.447042465209961,4.728548526763916,-0.035913024097681046
1676383047930122800,3.172122802734375,-8.506897926330566,4.793191909790039,-0.19632454216480255
1676383047940122600,3.18212255859375,-8.566753387451172,4.836287498474121,-0.3495534360408783
1676383047950123500,3.19212353515625,-8.459013938903809,4.838681697845459,-0.4165911078453064
1676383047960123600,3.20212353515625,-8.25550651550293,4.7620673179626465,-0.395043283700943
1676383047970123500,3.21212353515625,-8.236352920532227,4.654327869415283,-0.3687070608139038
1676383047980123600,3.22212353515625,-8.265083312988281,4.809951305389404,-0.45489832758903503
1676383047990123500,3.23212353515625,-8.2219877243042,4.764461517333984,-0.4836287498474121
1676383048000123600,3.24212353515625,-8.238747596740723,4.774038314819336,-0.45489832758903503
1676383048010123500,3.25212353515625,-8.28902530670166,4.788403511047363,-0.4429273009300232
1676383048020123600,3.26212353515625,-8.511686325073242,4.8051629066467285,-0.4381389021873474
1676383048030123500,3.27212353515625,-8.660126686096191,4.771644115447998,-0.395043283700943
1676383048040123600,3.28212353515625,-8.669703483581543,4.707000732421875,-0.31124621629714966
1676383048050122800,3.292122802734375,-8.712799072265625,4.709394931793213,-0.3016694188117981
1676383048060122600,3.30212255859375,-8.815750122070312,4.716577529907227,-0.24420857429504395
1676383048070122800,3.312122802734375,-8.839692115783691,4.721365928649902,-0.24899697303771973
1676383048080122600,3.32212255859375,-8.803778648376465,4.7620673179626465,-0.23942017555236816
1676383048090122800,3.332122802734375,-8.660126686096191,4.833893299102783,-0.15322890877723694
1676383048100123000,3.342122802734375,-8.547599792480469,4.728548526763916,-0.10534487664699554
1676383048110122500,3.35212255859375,-8.485349655151367,4.711789131164551,-0.05985504388809204
1676383048120122400,3.362122314453125,-8.430283546447754,4.711789131164551,-0.1412578970193863
1676383048130122200,3.372122314453125,-8.439860343933105,4.697423934936523,-0.33758243918418884
1676383048140122400,3.382122314453125,-8.521263122558594,4.788403511047363,-0.5410895943641663
1676383048150123300,3.392123291015625,-8.672098159790039,4.759673118591309,-0.6344634294509888
1676383048160123100,3.402123046875,-8.846874237060547,4.81473970413208,-0.7398083209991455
1676383048170123300,3.412123291015625,-8.949825286865234,4.857835292816162,-0.6751648783683777
1676383048180123100,3.422123046875,-9.004891395568848,4.836287498474121,-0.545877993106842
1676383048190123300,3.432123291015625,-8.971372604370117,4.81473970413208,-0.21547815203666687
1676383048200123100,3.442123046875,-8.856451034545898,4.733336925506592,0.11013327538967133
1676383048210123000,3.452123046875,-8.703222274780273,4.788403511047363,0.2585737705230713
1676383048220123000,3.462122802734375,-8.605060577392578,4.795586109161377,0.33758243918418884
1676383048230123000,3.472123046875,-8.511686325073242,4.730942726135254,0.3471592366695404
1676383048240123000,3.482122802734375,-8.341697692871094,4.752490520477295,0.2825157940387726
1676383048250122000,3.4921220703125,-8.207622528076172,4.774038314819336,0.20111294090747833
1676383048260122000,3.5021220703125,-8.186075210571289,4.754884719848633,0.14604631066322327
1676383048270122000,3.5121220703125,-8.248324394226074,4.78122091293335,0.016759412363171577
1676383048280122000,3.5221220703125,-8.320150375366211,4.81473970413208,-0.021547814831137657
1676383048290122000,3.5321220703125,-8.475772857666016,4.786009311676025,-0.047884032130241394
1676383048300122000,3.5421220703125,-8.753500938415527,4.793191909790039,-0.07182604819536209
1676383048310122000,3.5521220703125,-8.997709274291992,4.845864295959473,-0.08858546614646912
1676383048320122000,3.5621220703125,-9.01207447052002,4.841075897216797,-0.05985504388809204
1676383048330122000,3.5721220703125,-8.880393028259277,4.795586109161377,-0.019153613597154617
1676383048340122000,3.5821220703125,-8.743924140930176,4.850652694702148,-0.033518824726343155
1676383048350123000,3.592123046875,-8.52605152130127,4.867412090301514,-0.05027823522686958
1676383048360123000,3.602122802734375,-8.291419982910156,4.845864295959473,-0.019153613597154617
1676383048370123000,3.612123046875,-8.080730438232422,4.8602294921875,0.019153613597154617
1676383048380123000,3.622122802734375,-8.028057098388672,4.831499099731445,-0.026336219161748886
1676383048390123000,3.632123046875,-8.047211647033691,4.876988887786865,-0.05506663769483566
1676383048400123000,3.642122802734375,-8.210017204284668,4.857835292816162,-0.047884032130241394
1676383048410123300,3.652123291015625,-8.432677268981934,4.807557106018066,-0.040701430290937424
1676383048420123400,3.662123291015625,-8.530839920043945,4.8602294921875,-0.06224924325942993
1676383048430123300,3.672123291015625,-8.535628318786621,4.776432514190674,-0.07900865375995636
1676383048440123400,3.682123291015625,-8.59308910369873,4.831499099731445,-0.1388636976480484
1676383048450122500,3.69212255859375,-8.595483779907227,4.845864295959473,-0.043095629662275314
1676383048460122400,3.702122314453125,-8.585906982421875,4.831499099731445,-0.05267243832349777
1676383048470122500,3.71212255859375,-8.597877502441406,4.819528102874756,-0.12689268589019775
1676383048480122400,3.722122314453125,-8.640973091125488,4.8937482833862305,-0.22266076505184174
1676383048490122500,3.73212255859375,-8.626607894897461,4.797980308532715,-0.2513911724090576
1676383048500122400,3.742122314453125,-8.605060577392578,4.901230335235596,-0.27054479718208313
1676383048510122800,3.752122802734375,-8.624214172363281,4.831499099731445,-0.22505496442317963
1676383048520122600,3.76212255859375,-8.506897926330566,4.857835292816162,-0.26336219906806946
1676383048530122800,3.772122802734375,-8.274660110473633,4.901230335235596,-0.33039984107017517
1676383048540122600,3.78212255859375,-8.025663375854492,4.771644115447998,-0.08858546614646912
1676383048550123500,3.79212353515625,-7.6641387939453125,4.829104900360107,0.2537853717803955
1676383048560123600,3.80212353515625,-7.340921878814697,5.028122901916504,0.4644751250743866
1676383048570123500,3.81212353515625,-7.340921878814697,5.083189487457275,0.3423708379268646
1676383048580123600,3.82212353515625,-7.245153427124023,5.267542839050293,-0.19153612852096558
1676383048590123500,3.83212353515625,-6.546046733856201,6.514922142028809,-0.545877993106842
1676383048600123600,3.84212353515625,-4.853046894073486,5.990592002868652,-0.4141969084739685
1676383048610123500,3.85212353515625,-2.008735179901123,5.890035629272461,-0.06224924325942993
1676383048620123600,3.86212353515625,-0.028730420395731926,5.150227069854736,-0.10055647045373917
1676383048630123500,3.87212353515625,-0.43095630407333374,4.537012100219727,-0.1388636976480484
1676383048640123600,3.88212353515625,-0.5219359993934631,4.714183330535889,-0.1149216815829277
1676383048650122800,3.892122802734375,-0.5913678407669067,5.5237226486206055,-0.06703764945268631
1676383048660122600,3.90212255859375,-0.6512228846549988,6.2946553230285645,0.026336219161748886
1676383048670122800,3.912122802734375,-0.6560112833976746,6.3640875816345215,0.06703764945268631
1676383048680122600,3.92212255859375,-0.6200982332229614,6.244377136230469,0.12689268589019775
1676383048690122800,3.932122802734375,-0.5434837937355042,6.179733753204346,0.15322890877723694
1676383048700122600,3.94212255859375,-0.45250412821769714,6.349722385406494,0.15322890877723694
1676383048710122800,3.952122802734375,-0.33758243918418884,6.8501105308532715,0.14844051003456116
1676383048720122600,3.96212255859375,-0.24420857429504395,7.407959461212158,0.1173158809542656
1676383048730122800,3.972122802734375,-0.14365209639072418,7.788637638092041,0.06224924325942993
1676383048740122600,3.98212255859375,-0.08140286058187485,8.085518836975098,0.047884032130241394
1676383048750123500,3.99212353515625,0.014365210197865963,8.236352920532227,-0.026336219161748886
1676383048760123600,4.00212353515625,0.11252748221158981,8.305785179138184,-0.1388636976480484
1676383048770123500,4.01212353515625,0.22266076505184174,8.77504825592041,-0.26336219906806946
1676383048780123600,4.02212353515625,0.33279404044151306,9.483732223510742,-0.3902548849582672
1676383048790123500,4.03212353515625,0.395043283700943,10.161291122436523,-0.5841852426528931
1676383048800123600,4.04212353515625,0.3902548849582672,10.62816047668457,-0.7134721279144287
1676383048810123500,4.05212353515625,0.3208230137825012,10.884340286254883,-0.8259995579719543
1676383048820123600,4.06212353515625,0.23942017555236816,11.027992248535156,-0.9289502501487732
1676383048830123500,4.07212353515625,0.16759411990642548,11.300930976867676,-1.0342950820922852
1676383048840123600,4.08212353515625,0.05985504388809204,12.193968772888184,-1.1899182796478271
1676383048850122800,4.092122802734375,-0.08619125932455063,12.818855285644531,-1.2617442607879639
1676383048860122600,4.10212255859375,-0.2753331959247589,13.201927185058594,-1.2761094570159912
1676383048870122800,4.112122802734375,-0.4596867263317108,13.855544090270996,-1.2234370708465576
1676383048880122600,4.12212255859375,-0.5817909836769104,13.599365234375,-1.1204863786697388
1676383048890122800,4.132122802734375,-0.6871358752250671,13.774141311645508,-1.0079588890075684
1676383048900122600,4.14212255859375,-0.8044517636299133,14.842254638671875,-0.9241618514060974
1676383048910122800,4.152122802734375,-0.8355764150619507,15.13913631439209,-0.768538773059845
1676383048920122600,4.16212255859375,-0.8571242094039917,14.90450382232666,-0.49320554733276367
1676383048930122800,4.172122802734375,-0.7924807667732239,15.160683631896973,-0.33518823981285095
1676383048940122600,4.18212255859375,-0.6775590777397156,15.292365074157715,-0.12689268589019775
1676383048950123500,4.19212353515625,-0.4644751250743866,15.594034194946289,0
1676383048960123600,4.20212353515625,-0.23942017555236816,15.828665733337402,0.11252748221158981
1676383048970123500,4.21212353515625,-0.05985504388809204,16.046537399291992,0.19393034279346466
1676383048980123600,4.22212353515625,0.1364694982767105,16.233285903930664,0.21547815203666687
1676383048990123500,4.23212353515625,0.3447650372982025,16.372150421142578,0.17238251864910126
1676383049000123600,4.24212353515625,0.5386953949928284,16.63551139831543,0.004788403399288654
1676383049010123500,4.25212353515625,0.6655880808830261,16.764799118041992,-0.1628057211637497
1676383049020123600,4.26212353515625,0.6919242739677429,17.250822067260742,-0.3663128614425659
1676383049030123500,4.27212353515625,0.6607996821403503,17.200544357299805,-0.6129156351089478
1676383049040123600,4.28212353515625,0.5315127968788147,17.46869468688965,-0.8427590131759644
1676383049050122800,4.292122802734375,0.44532153010368347,17.993024826049805,-1.1635819673538208
1676383049060122600,4.30212255859375,0.26575639843940735,18.141464233398438,-1.3646949529647827
1676383049070122800,4.312122802734375,0.004788403399288654,18.098369598388672,-1.4915876388549805
1676383049080122600,4.32212255859375,-0.23702596127986908,18.256385803222656,-1.6400281190872192
1676383049090122800,4.332122802734375,-0.40462008118629456,18.084003448486328,-1.6950948238372803
1676383049100122600,4.34212255859375,-0.5363011956214905,18.347366333007812,-1.7405846118927002
1676383049110122800,4.352122802734375,-0.6105214357376099,17.916410446166992,-1.7094600200653076
1676383049120122400,4.362122314453125,-0.6560112833976746,17.636287689208984,-1.4987702369689941
1676383049130122200,4.372122314453125,-0.5602431893348694,17.557279586791992,-1.3742717504501343
1676383049140122400,4.382122314453125,-0.4429273009300232,17.145477294921875,-1.216254472732544
1676383049150123000,4.392123046875,-0.22744916379451752,17.119140625,-1.072602391242981
1676383049160123100,4.402123046875,-0.019153613597154617,16.903661727905273,-0.8906430602073669
1676383049170123000,4.412123046875,0.17717093229293823,16.21173858642578,-0.667982280254364
1676383049180123100,4.422123046875,0.4357447028160095,15.711350440979004,-0.5386953949928284
1676383049190123000,4.432123046875,0.6560112833976746,15.71853256225586,-0.45489832758903503
1676383049200123100,4.442123046875,0.8523358106613159,15.486294746398926,-0.4429273009300232
1676383049210123000,4.452123046875,0.9576807022094727,14.808735847473145,-0.4118026793003082
1676383049220123100,4.462123046875,0.9864110946655273,14.583381652832031,-0.3926490843296051
1676383049230123000,4.472123046875,0.9792284965515137,14.0542631149292,-0.47165772318840027
1676383049240123100,4.482123046875,0.9313444495201111,13.604153633117676,-0.49799394607543945
1676383049250122200,4.492122314453125,0.8547300100326538,13.479655265808105,-0.6057330369949341
1676383049260122400,4.502122314453125,0.7254431247711182,13.482048988342285,-0.7350199222564697
1676383049270122200,4.512122314453125,0.5674257874488831,13.27135944366455,-0.8738836050033569
1676383049280122400,4.522122314453125,0.3902548849582672,13.338397026062012,-1.0103530883789062
1676383049290122200,4.532122314453125,0.2298433631658554,12.35677433013916,-1.0414776802062988
1676383049300122400,4.542122314453125,0.07661445438861847,11.554717063903809,-1.0103530883789062
1676383049310122200,4.552122314453125,-0.035913024097681046,11.763011932373047,-1.1444283723831177
1676383049320122400,4.562122314453125,-0.12449848651885986,11.581052780151367,-1.235408067703247
1676383049330122200,4.572122314453125,-0.17238251864910126,11.38712215423584,-1.3000515699386597
1676383049340122400,4.582122314453125,-0.181959331035614,10.826879501342773,-1.3239935636520386
1676383049350123300,4.592123291015625,-0.19632454216480255,10.307337760925293,-1.235408067703247
1676383049360123100,4.602123046875,-0.15322890877723694,9.703998565673828,-1.1468225717544556
1676383049370123300,4.612123291015625,-0.11013327538967133,9.366415977478027,-1.091755986213684
1676383049380123100,4.622123046875,-0.016759412363171577,8.952219009399414,-1.1109095811843872
1676383049390123000,4.632123046875,0.07661445438861847,8.715193748474121,-1.1013327836990356
1676383049400123100,4.642123046875,0.13407529890537262,8.564358711242676,-1.1228805780410767
1676383049410122200,4.652122314453125,0.2298433631658554,8.444648742675781,-1.1324573755264282
1676383049420122600,4.66212255859375,0.3423708379268646,8.679280281066895,-1.139639973640442
1676383049430122800,4.672122802734375,0.42856210470199585,8.07354736328125,-1.0295066833496094
1676383049440122600,4.68212255859375,0.49559974670410156,7.1781158447265625,-0.8978256583213806
1676383049450121700,4.692121826171875,0.5291185975074768,6.955455303192139,-0.8595184087753296
1676383049460121900,4.702121826171875,0.5985504388809204,7.0248870849609375,-0.8571242094039917
1676383049470121700,4.712121826171875,0.629675030708313,6.732794284820557,-0.8379706144332886
1676383049480121900,4.722121826171875,0.6823474764823914,6.771101474761963,-0.8834604024887085
1676383049490121700,4.732121826171875,0.6871358752250671,6.462249755859375,-0.8667010068893433
1676383049500121900,4.742121826171875,0.7134721279144287,6.529287338256836,-0.8475474119186401
1676383049510121700,4.752121826171875,0.689530074596405,6.404788970947266,-0.8188169598579407
1676383049520121900,4.762121826171875,0.6775590777397156,6.2276177406311035,-0.7924807667732239
1676383049530121700,4.772121826171875,0.646434485912323,5.9211602210998535,-0.751779317855835
1676383049540121900,4.782121826171875,0.5913678407669067,5.8780646324157715,-0.7422025203704834
1676383049550122800,4.792122802734375,0.5602431893348694,6.0312933921813965,-0.7805097699165344
1676383049560122600,4.80212255859375,0.5482721924781799,6.225223541259766,-0.8379706144332886
1676383049570122800,4.812122802734375,0.5051765441894531,6.47900915145874,-0.8954314589500427
1676383049580122600,4.82212255859375,0.4596867263317108,6.390423774719238,-0.8762778043746948
1676383049590122800,4.832122802734375,0.40462008118629456,6.414365768432617,-0.8786720037460327
1676383049600122600,4.84212255859375,0.3256114423274994,6.505345344543457,-0.9097966551780701
1676383049610122800,4.852122802734375,0.2561795711517334,6.668150901794434,-0.9074024558067322
1676383049620122600,4.86212255859375,0.17717093229293823,6.888417720794678,-0.9265560507774353
1676383049630122800,4.872122802734375,0.10534487664699554,6.924330711364746,-0.9433154463768005
1676383049640122600,4.88212255859375,0.05267243832349777,7.142202854156494,-1.0031704902648926
1676383049650121700,4.892121826171875,0.002394201699644327,7.352892875671387,-1.070208191871643
1676383049660121900,4.902121826171875,-0.028730420395731926,7.544428825378418,-1.0797849893569946
1676383049670121700,4.912121826171875,-0.043095629662275314,7.838915824890137,-1.1204863786697388
1676383049680121900,4.922121826171875,-0.035913024097681046,7.920318603515625,-1.0654197931289673
1676383049690121700,4.932121826171875,-0.035913024097681046,8.068758964538574,-1.0821791887283325
1676383049700121900,4.942121826171875,-0.06224924325942993,8.605060577392578,-1.1468225717544556
1676383049710122800,4.952122802734375,-0.043095629662275314,9.179668426513672,-1.1875240802764893
1676383049720122600,4.96212255859375,0.023942016065120697,9.31613826751709,-1.158793568611145
1676383049730122800,4.972122802734375,0.10055647045373917,9.40951156616211,-1.1659762859344482
1676383049740122600,4.98212255859375,0.20111294090747833,9.754277229309082,-1.173158884048462
1676383049750123500,4.99212353515625,0.29209262132644653,10.47014331817627,-1.1803414821624756
1676383049760123400,5.002123291015625,0.3758896589279175,10.47253704071045,-1.1180921792984009
1676383049770123500,5.01212353515625,0.45250412821769714,10.75265884399414,-1.0654197931289673
1676383049780123600,5.02212353515625,0.5674257874488831,11.221922874450684,-1.072602391242981
1676383049790123500,5.03212353515625,0.6703764796257019,11.56668758392334,-1.039083480834961
1676383049800123600,5.04212353515625,0.7709329724311829,11.87075138092041,-1.0295066833496094
1676383049810122800,5.052122802734375,0.8427590131759644,12.205939292907715,-0.9864110946655273
1676383049820122600,5.06212255859375,0.871489405632019,12.708722114562988,-0.9385270476341248
1676383049830122800,5.072122802734375,0.8595184087753296,12.873921394348145,-0.8930372595787048
1676383049840122600,5.08212255859375,0.7996633648872375,13.27375316619873,-0.8858546018600464
1676383049850122000,5.0921220703125,0.7637503147125244,13.63527774810791,-0.9193734526634216
1676383049860121900,5.102121826171875,0.6440402865409851,14.229040145874023,-0.950498104095459
1676383049870122000,5.1121220703125,0.5291185975074768,14.525920867919922,-0.9313444495201111
1676383049880121900,5.122121826171875,0.33997663855552673,14.976329803466797,-0.9528923034667969
1676383049890121700,5.132121826171875,0.15801730751991272,15.258846282958984,-0.9696516990661621
1676383049900121900,5.142121826171875,0,15.577275276184082,-1.05105459690094
1676383049910121700,5.152121826171875,-0.13168109953403473,15.651494979858398,-1.1420341730117798
1676383049920121900,5.162121826171875,-0.24420857429504395,16.046537399291992,-1.1851298809051514
1676383049930121700,5.172121826171875,-0.31603461503982544,16.345813751220703,-1.213860273361206
1676383049940121900,5.182121826171875,-0.33758243918418884,16.719308853149414,-1.2641384601593018
1676383049950122800,5.192122802734375,-0.28969839215278625,16.963518142700195,-1.316810965538025
1676383049960122600,5.20212255859375,-0.1604115068912506,17.018583297729492,-1.381454348564148
1676383049970122800,5.212122802734375,-0.031124621629714966,17.193361282348633,-1.434126853942871
1676383049980122600,5.22212255859375,0.14365209639072418,17.475875854492188,-1.4053963422775269
1676383049990122800,5.232122802734375,0.33518823981285095,17.571645736694336,-1.37906014919281
1676383050000122600,5.24212255859375,0.49320554733276367,17.54291534423828,-1.335964560508728
1676383050010122800,5.252122802734375,0.667982280254364,17.461511611938477,-1.3096283674240112
1676383050020122600,5.26212255859375,0.7876923680305481,17.49502944946289,-1.2761094570159912
1676383050030122800,5.272122802734375,0.9002198576927185,17.24363899230957,-1.1468225717544556
1676383050040122600,5.28212255859375,0.9361328482627869,17.389684677124023,-1.036689281463623
1676383050050121700,5.292121826171875,0.9169792532920837,17.523759841918945,-0.9840168952941895
1676383050060121900,5.302121826171875,0.828393816947937,17.076045989990234,-0.8834604024887085
1676383050070121700,5.312121826171875,0.7230489253997803,16.9395751953125,-0.8451532125473022
1676383050080121900,5.322121826171875,0.5937620401382446,17.30828285217285,-0.768538773059845
1676383050090121700,5.332121826171875,0.40222588181495667,16.771982192993164,-0.6799532771110535
1676383050100121900,5.342121826171875,0.2322375625371933,16.726491928100586,-0.6607996821403503
1676383050110122800,5.352122802734375,0.08858546614646912,16.779163360595703,-0.667982280254364
1676383050120122600,5.36212255859375,-0.05506663769483566,16.163854598999023,-0.6799532771110535
1676383050130122800,5.372122802734375,-0.09816227108240128,15.706562042236328,-0.6751648783683777
1676383050140122600,5.38212255859375,-0.16998831927776337,15.938798904418945,-0.7230489253997803
1676383050150123500,5.39212353515625,-0.16759411990642548,15.78317642211914,-0.7158663272857666
1676383050160123400,5.402123291015625,-0.12689268589019775,15.11758804321289,-0.7038952708244324
1676383050170123500,5.41212353515625,-0.05267243832349777,15.110405921936035,-0.7709329724311829
1676383050180123400,5.422123291015625,0.07422025501728058,14.782400131225586,-0.7637503147125244
1676383050190123500,5.43212353515625,0.17477671802043915,14.384662628173828,-0.7613561153411865
1676383050200123400,5.442123291015625,0.2944868206977844,13.819631576538086,-0.7254431247711182
1676383050210123500,5.45212353515625,0.3974374830722809,13.841178894042969,-0.7134721279144287
1676383050220123400,5.462123291015625,0.5171475410461426,13.194745063781738,-0.6847416758537292
1676383050230123500,5.47212353515625,0.6009446382522583,12.854767799377441,-0.6105214357376099
1676383050240123400,5.482123291015625,0.6368576288223267,12.399869918823242,-0.5722141861915588
1676383050250122800,5.492122802734375,0.6919242739677429,12.079047203063965,-0.5195417404174805
1676383050260122600,5.50212255859375,0.6727706789970398,11.660061836242676,-0.47165772318840027
1676383050270122500,5.51212255859375,0.6368576288223267,11.229104995727539,-0.40222588181495667
1676383050280122600,5.52212255859375,0.5889736413955688,10.869975090026855,-0.3663128614425659
1676383050290122500,5.53212255859375,0.5219359993934631,10.362403869628906,-0.3064578175544739
1676383050300122600,5.54212255859375,0.45250412821769714,10.14213752746582,-0.2585737705230713
1676383050310122800,5.552122802734375,0.3687070608139038,9.814131736755371,-0.21547815203666687
1676383050320122600,5.56212255859375,0.2801215946674347,9.397541046142578,-0.1628057211637497
1676383050330122800,5.572122802734375,0.17956513166427612,8.92109489440918,-0.1149216815829277
1676383050340122600,5.58212255859375,0.10295066982507706,8.724770545959473,-0.10534487664699554
1676383050350123500,5.59212353515625,0.043095629662275314,8.459013938903809,-0.05746084079146385
1676383050360123600,5.60212353515625,-0.028730420395731926,8.353669166564941,-0.0454898327589035
1676383050370123500,5.61212353515625,-0.06224924325942993,7.961019992828369,-0.026336219161748886
1676383050380123600,5.62212353515625,-0.08619125932455063,7.427113056182861,-0.021547814831137657
1676383050390123500,5.63212353515625,-0.12449848651885986,7.388805866241455,-0.023942016065120697
1676383050400123400,5.642123291015625,-0.12210428714752197,7.120655059814453,-0.009576806798577309
1676383050410123500,5.65212353515625,-0.12928688526153564,6.900388717651367,0.016759412363171577
1676383050420123400,5.662123291015625,-0.1149216815829277,6.718429088592529,-0.004788403399288654
1676383050430123500,5.67212353515625,-0.10295066982507706,6.519710540771484,0.014365210197865963
1676383050440123400,5.682123291015625,-0.06703764945268631,6.498162746429443,0.019153613597154617
1676383050450122800,5.692122802734375,-0.043095629662275314,6.3425397872924805,0.026336219161748886
1676383050460122600,5.70212255859375,-0.016759412363171577,6.110301971435547,0.009576806798577309
1676383050470122800,5.712122802734375,0.002394201699644327,6.00495719909668,0.023942016065120697
1676383050480122600,5.72212255859375,0.038307227194309235,6.0504469871521,0.035913024097681046
1676383050490122800,5.732122802734375,0.07182604819536209,5.995380401611328,0.031124621629714966
1676383050500122600,5.74212255859375,0.08858546614646912,6.048052787780762,0.05506663769483566
1676383050510122800,5.752122802734375,0.1173158809542656,5.954679012298584,0.07422025501728058
1676383050520122600,5.76212255859375,0.15322890877723694,5.892429828643799,0.07900865375995636
1676383050530122800,5.772122802734375,0.15083470940589905,5.858911037445068,0.07422025501728058
1676383050540122600,5.78212255859375,0.1843535304069519,5.978621006011963,0.07661445438861847
1676383050550123500,5.79212353515625,0.17956513166427612,6.00495719909668,0.08379705995321274
1676383050560123400,5.802123291015625,0.1867477297782898,6.2060699462890625,0.09576806426048279
1676383050570123500,5.81212353515625,0.17238251864910126,6.292261123657227,0.09816227108240128
1676383050580123400,5.822123291015625,0.17717093229293823,6.40000057220459,0.11252748221158981
1676383050590123500,5.83212353515625,0.1364694982767105,6.593930721282959,0.13168109953403473
1676383050600123600,5.84212353515625,0.11252748221158981,6.723217487335205,0.1149216815829277
1676383050610123500,5.85212353515625,0.08379705995321274,7.012916088104248,0.09816227108240128
1676383050620123600,5.86212353515625,0.05746084079146385,7.233182430267334,0.05985504388809204
1676383050630123500,5.87212353515625,0,7.455843448638916,0.035913024097681046
1676383050640123600,5.88212353515625,-0.047884032130241394,7.7527241706848145,0.002394201699644327
1676383050650122800,5.892122802734375,-0.08379705995321274,7.972990989685059,-0.033518824726343155
1676383050660122600,5.90212255859375,-0.1388636976480484,8.303390502929688,-0.090979665517807
1676383050670122800,5.912122802734375,-0.19393034279346466,8.68167495727539,-0.16998831927776337
1676383050680122600,5.92212255859375,-0.22505496442317963,9.004891395568848,-0.22744916379451752
1676383050690122800,5.932122802734375,-0.26096799969673157,9.447818756103516,-0.3232172429561615
1676383050700122600,5.94212255859375,-0.26815059781074524,9.80216121673584,-0.4189853072166443
1676383050710122800,5.952122802734375,-0.2944868206977844,10.13974380493164,-0.4812345504760742
1676383050720122600,5.96212255859375,-0.2944868206977844,10.510845184326172,-0.5817909836769104
1676383050730122800,5.972122802734375,-0.2777273952960968,10.874763488769531,-0.6584054827690125
1676383050740122600,5.98212255859375,-0.24420857429504395,11.29374885559082,-0.7398083209991455
1676383050750123500,5.99212353515625,-0.19393034279346466,11.648090362548828,-0.8020575642585754
1676383050760123400,6.002123291015625,-0.16759411990642548,12.280159950256348,-0.8834604024887085
1676383050770123500,6.01212353515625,-0.08858546614646912,12.586617469787598,-0.912190854549408
1676383050780123400,6.022123291015625,-0.06224924325942993,12.493244171142578,-0.8786720037460327
1676383050790123500,6.03212353515625,-0.023942016065120697,13.067852020263672,-0.8954314589500427
1676383050800123400,6.042123291015625,0.028730420395731926,13.556269645690918,-0.9026140570640564
1676383050810123500,6.05212353515625,0.08140286058187485,13.903428077697754,-0.9002198576927185
1676383050820123400,6.062123291015625,0.10773907601833344,14.274529457092285,-0.8595184087753296
1676383050830123500,6.07212353515625,0.07182604819536209,14.851831436157227,-0.7948749661445618
1676383050840123600,6.08212353515625,0.038307227194309235,14.645630836486816,-0.7038952708244324
1676383050850122800,6.092122802734375,-0.05267243832349777,14.681544303894043,-0.5985504388809204
1676383050860122600,6.10212255859375,-0.0454898327589035,15.234904289245605,-0.5746083855628967
1676383050870122800,6.112122802734375,-0.14844051003456116,15.850214004516602,-0.524330198764801
1676383050880122600,6.12212255859375,-0.19632454216480255,15.689802169799805,-0.5027823448181152
1676383050890122800,6.132122802734375,-0.3280056416988373,15.967529296875,-0.45489832758903503
1676383050900122600,6.14212255859375,-0.4165911078453064,16.25962257385254,-0.4165911078453064
1676383050910122800,6.152122802734375,-0.4668693244457245,16.460735321044922,-0.44532153010368347
1676383050920122600,6.16212255859375,-0.4572925269603729,16.345813751220703,-0.5171475410461426
1676383050930122800,6.172122802734375,-0.45489832758903503,16.666637420654297,-0.569819986820221
1676383050940122600,6.18212255859375,-0.4644751250743866,16.987459182739258,-0.646434485912323
1676383050950123500,6.19212353515625,-0.3974374830722809,17.150264739990234,-0.730231523513794
1676383050960123400,6.202123291015625,-0.3280056416988373,17.05449676513672,-0.7972691655158997
1676383050970123500,6.21212353515625,-0.2082955539226532,16.771982192993164,-0.8595184087753296
1676383050980123600,6.22212353515625,-0.1173158809542656,17.509395599365234,-0.9911994934082031
1676383050990123500,6.23212353515625,0.021547814831137657,17.408838272094727,-1.0678139925003052
1676383051000123600,6.24212353515625,0.10295066982507706,17.040132522583008,-1.0821791887283325
1676383051010123500,6.25212353515625,0.19153612852096558,16.9826717376709,-1.115697979927063
1676383051020123600,6.26212353515625,0.24420857429504395,17.133506774902344,-1.1324573755264282
1676383051030123500,6.27212353515625,0.31842881441116333,16.613964080810547,-1.115697979927063
1676383051040123600,6.28212353515625,0.35434186458587646,16.932392120361328,-1.1444283723831177
1676383051050123000,6.292123046875,0.3687070608139038,17.05210304260254,-1.1324573755264282
1676383051060123000,6.302122802734375,0.2585737705230713,16.139911651611328,-1.036689281463623
1676383051070123000,6.312123046875,0.16998831927776337,15.917251586914062,-0.9433154463768005
1676383051080123000,6.322122802734375,0.15083470940589905,16.33144760131836,-0.8906430602073669
1676383051090123000,6.332123046875,0.10534487664699554,15.893309593200684,-0.8403648138046265
1676383051100123100,6.342123046875,0.004788403399288654,15.452775955200195,-0.7781155705451965
1676383051110123000,6.352123046875,-0.10055647045373917,15.203779220581055,-0.6751648783683777
1676383051120123100,6.362123046875,-0.17956513166427612,15.012243270874023,-0.586579442024231
1676383051130123000,6.372123046875,-0.14604631066322327,14.346355438232422,-0.5482721924781799
1676383051140123000,6.382122802734375,-0.13407529890537262,14.14284896850586,-0.5219359993934631
1676383051150123800,6.392123779296875,-0.10534487664699554,14.221857070922852,-0.5386953949928284
1676383051160124000,6.4021240234375,-0.090979665517807,13.426982879638672,-0.4908113479614258
1676383051170123800,6.412123779296875,-0.0694318488240242,13.340790748596191,-0.4644751250743866
1676383051180124000,6.4221240234375,0.05746084079146385,13.046304702758789,-0.4836287498474121
1676383051190123800,6.432123779296875,0.14844051003456116,12.521974563598633,-0.47884035110473633
1676383051200124000,6.4421240234375,0.23942017555236816,12.100594520568848,-0.5123591423034668
1676383051210123800,6.452123779296875,0.3423708379268646,11.954548835754395,-0.5434837937355042
1676383051220124000,6.4621240234375,0.395043283700943,11.645696640014648,-0.5650315880775452
1676383051230123800,6.472123779296875,0.47165772318840027,11.291354179382324,-0.5626373887062073
1676383051240124000,6.4821240234375,0.5386953949928284,11.085453033447266,-0.5937620401382446
1676383051250123000,6.492123046875,0.5913678407669067,10.620978355407715,-0.6248866319656372
1676383051260123100,6.502123046875,0.608127236366272,10.070311546325684,-0.6153098344802856
1676383051270123000,6.512123046875,0.5961562395095825,9.71357536315918,-0.6153098344802856
1676383051280123000,6.522122802734375,0.6344634294509888,9.668086051940918,-0.6536170840263367
1676383051290123000,6.532123046875,0.6727706789970398,9.435848236083984,-0.6607996821403503
1676383051300123000,6.542122802734375,0.6703764796257019,9.091083526611328,-0.6200982332229614
1676383051310123000,6.552123046875,0.6224924325942993,8.834903717041016,-0.6272808313369751
1676383051320123000,6.562122802734375,0.5889736413955688,8.59308910369873,-0.6057330369949341
1676383051330123000,6.572123046875,0.5554547905921936,8.190863609313965,-0.5961562395095825
1676383051340123100,6.582123046875,0.4812345504760742,7.759906768798828,-0.5482721924781799
1676383051350123500,6.59212353515625,0.4692635238170624,7.635408401489258,-0.5506663918495178
1676383051360123600,6.60212353515625,0.4884171485900879,8.123826026916504,-0.5602431893348694
1676383051370123500,6.61212353515625,0.45489832758903503,7.671321392059326,-0.5315127968788147
1676383051380123600,6.62212353515625,0.4357447028160095,7.115866661071777,-0.47405192255973816
1676383051390123500,6.63212353515625,0.3711012601852417,7.015310287475586,-0.44532153010368347
1676383051400123600,6.64212353515625,0.36152446269989014,7.151779651641846,-0.4213795065879822
1676383051410122800,6.652122802734375,0.36152446269989014,6.8716583251953125,-0.4118026793003082
1676383051420122600,6.66212255859375,0.3687070608139038,6.641814708709717,-0.3926490843296051
1676383051430122800,6.672122802734375,0.3758896589279175,6.589142322540283,-0.363918662071228
1676383051440122600,6.68212255859375,0.42377370595932007,6.799831867218018,-0.35913026332855225
1676383051450121700,6.692121826171875,0.4429273009300232,6.730400085449219,-0.35673606395721436
1676383051460121900,6.702121826171875,0.45010992884635925,6.486191749572754,-0.31603461503982544
1676383051470121700,6.712121826171875,0.4692635238170624,6.40000057220459,-0.2849099934101105
1676383051480121900,6.722121826171875,0.4812345504760742,6.541258335113525,-0.26575639843940735
1676383051490121700,6.732121826171875,0.5267243981361389,6.632237911224365,-0.2849099934101105
1676383051500121900,6.742121826171875,0.5722141861915588,6.665756702423096,-0.2825157940387726
1676383051510121700,6.752121826171875,0.6392518281936646,6.723217487335205,-0.2968810200691223
1676383051520121900,6.762121826171875,0.6991068720817566,6.79743766784668,-0.2849099934101105
1676383051530121700,6.772121826171875,0.730231523513794,6.924330711364746,-0.2849099934101105
1676383051540121900,6.782121826171875,0.768538773059845,7.000945091247559,-0.2849099934101105
1676383051550122500,6.79212255859375,0.790086567401886,7.2427592277526855,-0.30885201692581177
1676383051560122600,6.80212255859375,0.811634361743927,7.427113056182861,-0.30885201692581177
1676383051570122500,6.81212255859375,0.8236053586006165,7.561188220977783,-0.33758243918418884
1676383051580122600,6.82212255859375,0.8571242094039917,7.759906768798828,-0.38067805767059326
1676383051590122800,6.832122802734375,0.849941611289978,7.94904899597168,-0.3974374830722809
1676383051600122600,6.84212255859375,0.8571242094039917,8.202834129333496,-0.42616790533065796
1676383051610121700,6.852121826171875,0.8451532125473022,8.542811393737793,-0.45010992884635925
1676383051620121900,6.862121826171875,0.7972691655158997,8.810961723327637,-0.47884035110473633
1676383051630121700,6.872121826171875,0.7445967197418213,8.978555679321289,-0.49320554733276367
1676383051640121900,6.882121826171875,0.7110779285430908,9.47654914855957,-0.5482721924781799
1676383051650121700,6.892121826171875,0.646434485912323,9.850045204162598,-0.5913678407669067
1676383051660121900,6.902121826171875,0.5602431893348694,9.823708534240723,-0.586579442024231
1676383051670121700,6.912121826171875,0.5051765441894531,10.070311546325684,-0.5889736413955688
1676383051680121900,6.922121826171875,0.4141969084739685,10.822091102600098,-0.6560112833976746
1676383051690121700,6.932121826171875,0.33518823981285095,11.332056045532227,-0.6488286852836609
1676383051700121900,6.942121826171875,0.2753331959247589,11.14770221710205,-0.6392518281936646
1676383051710122800,6.952122802734375,0.22744916379451752,11.547533988952637,-0.6560112833976746
1676383051720122600,6.96212255859375,0.22505496442317963,12.11974811553955,-0.6703764796257019
1676383051730122800,6.972122802734375,0.2346317619085312,12.246641159057617,-0.6440402865409851
1676383051740122600,6.98212255859375,0.2513911724090576,12.548310279846191,-0.608127236366272
1676383051750123500,6.99212353515625,0.26336219906806946,12.87631607055664,-0.6057330369949341
1676383051760123400,7.002123291015625,0.3495534360408783,13.355155944824219,-0.6033388376235962
1676383051770123500,7.01212353515625,0.43335050344467163,13.546692848205566,-0.5937620401382446
1676383051780123400,7.022123291015625,0.5291185975074768,13.685556411743164,-0.5722141861915588
1676383051790123500,7.03212353515625,0.6536170840263367,13.87230396270752,-0.545877993106842
1676383051800123400,7.042123291015625,0.7110779285430908,14.39423942565918,-0.545877993106842
1676383051810122800,7.052122802734375,0.790086567401886,14.535497665405273,-0.5291185975074768
1676383051820122600,7.06212255859375,0.8643068075180054,14.420576095581055,-0.5363011956214905
1676383051830122800,7.072122802734375,0.9193734526634216,14.95957088470459,-0.5602431893348694
1676383051840122600,7.08212255859375,0.933738648891449,15.17265510559082,-0.5770025849342346
1676383051850122800,7.092122802734375,0.8810662031173706,15.148713111877441,-0.5530605912208557
1676383051860122600,7.10212255859375,0.8427590131759644,15.685013771057129,-0.6344634294509888
1676383051870122800,7.112122802734375,0.7445967197418213,15.62515926361084,-0.667982280254364
1676383051880122600,7.12212255859375,0.6967126727104187,15.833454132080078,-0.6775590777397156
1676383051890122800,7.132122802734375,0.5410895943641663,16.194978713989258,-0.7398083209991455
1676383051900122600,7.14212255859375,0.4381389021873474,16.068086624145508,-0.7805097699165344
1676383051910123500,7.15212353515625,0.3256114423274994,16.21413230895996,-0.7924807667732239
1676383051920123400,7.162123291015625,0.2082955539226532,16.352996826171875,-0.8331822156906128
1676383051930123500,7.17212353515625,0.14365209639072418,16.309900283813477,-0.8882488012313843
1676383051940123400,7.182123291015625,0.0454898327589035,16.20455551147461,-0.8403648138046265
1676383051950123500,7.19212353515625,0.033518824726343155,16.432004928588867,-0.8810662031173706
1676383051960123400,7.202123291015625,0.019153613597154617,16.183008193969727,-0.828393816947937
1676383051970123500,7.21212353515625,0.08140286058187485,16.254833221435547,-0.8307880163192749
1676383051980123600,7.22212353515625,0.14844051003456116,16.07766342163086,-0.8020575642585754
1676383051990123500,7.23212353515625,0.20111294090747833,15.91006851196289,-0.7661445140838623
1676383052000123600,7.24212353515625,0.28969839215278625,15.929222106933594,-0.727837324142456
1676383052010123500,7.25212353515625,0.3471592366695404,15.826272010803223,-0.6823474764823914
1676383052020123600,7.26212353515625,0.4644751250743866,15.380949974060059,-0.6368576288223267
1676383052030123500,7.27212353515625,0.545877993106842,15.524601936340332,-0.6703764796257019
1676383052040123600,7.28212353515625,0.5626373887062073,14.930840492248535,-0.5817909836769104
1676383052050122800,7.292122802734375,0.5913678407669067,14.554651260375977,-0.5530605912208557
1676383052060122600,7.30212255859375,0.5554547905921936,14.561834335327148,-0.5291185975074768
1676383052070122800,7.312122802734375,0.5506663918495178,14.506767272949219,-0.5171475410461426
1676383052080122600,7.32212255859375,0.45489832758903503,13.898639678955078,-0.5291185975074768
1676383052090122500,7.33212255859375,0.40222588181495667,13.893851280212402,-0.5219359993934631
1676383052100122600,7.34212255859375,0.29209262132644653,13.63527774810791,-0.5195417404174805
1676383052110123300,7.352123291015625,0.19871874153614044,13.316848754882812,-0.5027823448181152
1676383052120123400,7.362123291015625,0.11971008777618408,13.012785911560059,-0.5195417404174805
1676383052130123300,7.372123291015625,0.05746084079146385,12.517186164855957,-0.5027823448181152
1676383052140123400,7.382123291015625,-0.016759412363171577,12.514791488647461,-0.5291185975074768
1676383052150123300,7.392123291015625,-0.10773907601833344,12.067075729370117,-0.5267243981361389
1676383052160123400,7.402123291015625,-0.16759411990642548,11.767800331115723,-0.507570743560791
1676383052170123300,7.412123291015625,-0.1867477297782898,11.50683307647705,-0.5219359993934631
1676383052180123400,7.422123291015625,-0.20111294090747833,11.430217742919922,-0.5123591423034668
1676383052190123300,7.432123291015625,-0.1628057211637497,10.795754432678223,-0.47644615173339844
1676383052200123400,7.442123291015625,-0.1412578970193863,10.522815704345703,-0.49320554733276367
1676383052210123500,7.45212353515625,-0.13168109953403473,10.3456449508667,-0.47644615173339844
1676383052220123400,7.462123291015625,-0.0933738648891449,10.194809913635254,-0.4812345504760742
1676383052230123500,7.47212353515625,-0.0694318488240242,9.648932456970215,-0.4429273009300232
1676383052240123400,7.482123291015625,-0.021547814831137657,9.378387451171875,-0.4213795065879822
1676383052250122500,7.49212255859375,0.038307227194309235,9.229947090148926,-0.4429273009300232
1676383052260122600,7.50212255859375,0.06464344263076782,8.952219009399414,-0.3926490843296051
1676383052270122500,7.51212255859375,0.10055647045373917,8.605060577392578,-0.38307225704193115
1676383052280122600,7.52212255859375,0.12449848651885986,8.403946876525879,-0.363918662071228
1676383052290122500,7.53212255859375,0.1388636976480484,8.243535995483398,-0.33279404044151306
1676383052300122600,7.54212255859375,0.11971008777618408,8.080730438232422,-0.30885201692581177
1676383052310122500,7.55212255859375,0.1412578970193863,7.781454563140869,-0.28969839215278625
1676383052320122600,7.56212255859375,0.12449848651885986,7.601889610290527,-0.2801215946674347
1676383052330122500,7.57212255859375,0.1173158809542656,7.522881031036377,-0.26336219906806946
1676383052340122600,7.58212255859375,0.07661445438861847,7.388805866241455,-0.2513911724090576
1676383052350123500,7.59212353515625,0.05267243832349777,7.197269439697266,-0.21547815203666687
1676383052360123400,7.602123291015625,0.026336219161748886,7.012916088104248,-0.21308395266532898
1676383052370123300,7.612123291015625,0.009576806798577309,7.063194274902344,-0.1604115068912506
1676383052380123400,7.622123291015625,-0.026336219161748886,6.953061103820801,-0.17956513166427612
1676383052390123500,7.63212353515625,-0.05746084079146385,6.84053373336792,-0.15801730751991272
1676383052400123600,7.64212353515625,-0.07900865375995636,6.835745334625244,-0.1412578970193863
1676383052410123500,7.65212353515625,-0.13407529890537262,6.814197540283203,-0.14844051003456116
1676383052420123600,7.66212353515625,-0.16759411990642548,6.814197540283203,-0.1364694982767105
1676383052430123500,7.67212353515625,-0.20111294090747833,6.8022260665893555,-0.10534487664699554
1676383052440123600,7.68212353515625,-0.22266076505184174,6.795043468475342,-0.10295066982507706
1676383052450123000,7.692123046875,-0.2585737705230713,6.883629322052002,-0.1173158809542656
1676383052460123000,7.702122802734375,-0.3016694188117981,6.962637901306152,-0.090979665517807
1676383052470123000,7.712123046875,-0.31364041566848755,7.048829078674316,-0.0933738648891449
1676383052480123000,7.722122802734375,-0.3208230137825012,7.14699125289917,-0.11252748221158981
1676383052490123000,7.732123046875,-0.33997663855552673,7.305008888244629,-0.10295066982507706
1676383052500123000,7.742122802734375,-0.35434186458587646,7.474997043609619,-0.10534487664699554
1676383052510122800,7.752122802734375,-0.33758243918418884,7.644985198974609,-0.1149216815829277
1676383052520123000,7.762122802734375,-0.3256114423274994,7.8221564292907715,-0.14604631066322327
1676383052530122800,7.772122802734375,-0.28730419278144836,7.98256778717041,-0.1867477297782898
1676383052540123000,7.782122802734375,-0.2585737705230713,8.23156452178955,-0.21547815203666687
1676383052550123800,7.792123779296875,-0.21787235140800476,8.478167533874512,-0.2298433631658554
1676383052560123600,7.80212353515625,-0.17477671802043915,8.70801067352295,-0.26815059781074524
1676383052570123800,7.812123779296875,-0.1173158809542656,8.983344078063965,-0.28969839215278625
1676383052580123600,7.82212353515625,-0.07661445438861847,9.198822021484375,-0.3256114423274994
1676383052590123800,7.832123779296875,-0.019153613597154617,9.419088363647461,-0.3734954595565796
1676383052600123600,7.84212353515625,0.014365210197865963,9.720758438110352,-0.3687070608139038
1676383052610123800,7.852123779296875,0.07422025501728058,10.082283020019531,-0.42377370595932007
1676383052620123600,7.86212353515625,0.1388636976480484,10.32170295715332,-0.45010992884635925
1676383052630123800,7.872123779296875,0.16998831927776337,10.544363975524902,-0.49559974670410156
1676383052640123600,7.88212353515625,0.15562310814857483,10.83166790008545,-0.5099649429321289
1676383052650122800,7.892122802734375,0.1388636976480484,11.11178970336914,-0.5722141861915588
1676383052660123000,7.902122802734375,0.13407529890537262,11.485284805297852,-0.586579442024231
1676383052670122800,7.912122802734375,0.11971008777618408,11.913846969604492,-0.6153098344802856
1676383052680123000,7.922122802734375,0.09816227108240128,12.091017723083496,-0.6488286852836609
1676383052690122800,7.932122802734375,0.002394201699644327,12.014403343200684,-0.5961562395095825
1676383052700123000,7.942122802734375,-0.06224924325942993,12.885892868041992,-0.6057330369949341
1676383052710122800,7.952122802734375,-0.11971008777618408,13.17080307006836,-0.6344634294509888
1676383052720123000,7.962122802734375,-0.21308395266532898,13.101370811462402,-0.6153098344802856
1676383052730122800,7.972122802734375,-0.2537853717803955,13.151649475097656,-0.5889736413955688
1676383052740123000,7.982122802734375,-0.31842881441116333,13.798083305358887,-0.5746083855628967
1676383052750123500,7.99212353515625,-0.35913026332855225,14.011167526245117,-0.5554547905921936
1676383052760123400,8.002123291015625,-0.4165911078453064,14.241010665893555,-0.5506663918495178
1676383052770123500,8.01212353515625,-0.3878606855869293,14.279317855834961,-0.5291185975074768
1676383052780123400,8.022123291015625,-0.38067805767059326,14.535497665405273,-0.48602294921875
1676383052790123500,8.03212353515625,-0.363918662071228,14.600141525268555,-0.4812345504760742
1676383052800123400,8.042123291015624,-0.304063618183136,14.724939346313477,-0.4812345504760742
1676383052810123500,8.05212353515625,-0.1867477297782898,15.103222846984863,-0.5195417404174805
1676383052820123600,8.06212353515625,-0.0933738648891449,15.29954719543457,-0.5410895943641663
1676383052830123500,8.07212353515625,-0.016759412363171577,15.103222846984863,-0.5578489899635315
1676383052840123600,8.08212353515625,0.038307227194309235,15.328277587890625,-0.5650315880775452
1676383052850122800,8.092122802734375,0.15322890877723694,15.292365074157715,-0.5578489899635315
1676383052860122600,8.10212255859375,0.22744916379451752,15.464747428894043,-0.6584054827690125
1676383052870122800,8.112122802734374,0.31842881441116333,15.601217269897461,-0.7038952708244324
1676383052880122600,8.12212255859375,0.2992752194404602,15.491083145141602,-0.7350199222564697
1676383052890122800,8.132122802734376,0.2944868206977844,15.486294746398926,-0.7661445140838623
1676383052900122600,8.14212255859375,0.2777273952960968,15.594034194946289,-0.7924807667732239
1676383052910122800,8.152122802734375,0.26815059781074524,14.957176208496094,-0.8188169598579407
1676383052920122600,8.16212255859375,0.2298433631658554,15.66107177734375,-0.8906430602073669
1676383052930122800,8.172122802734375,0.22744916379451752,15.804723739624023,-0.9720458984375
1676383052940122600,8.18212255859375,0.10055647045373917,15.277999877929688,-0.9169792532920837
1676383052950123500,8.19212353515625,0.033518824726343155,14.909292221069336,-0.8762778043746948
1676383052960123400,8.202123291015624,-0.05746084079146385,15.38813304901123,-0.8810662031173706
1676383052970123500,8.21212353515625,-0.06703764945268631,14.772823333740234,-0.8355764150619507
1676383052980123600,8.22212353515625,-0.08379705995321274,14.60732364654541,-0.8259995579719543
1676383052990123500,8.23212353515625,-0.10055647045373917,14.504373550415039,-0.7829039692878723
1676383053000123600,8.24212353515625,-0.090979665517807,14.437335968017578,-0.7541735172271729
1676383053010123500,8.25212353515625,-0.05267243832349777,14.075811386108398,-0.6967126727104187
1676383053020123600,8.26212353515625,0.0071826050989329815,13.733440399169922,-0.6751648783683777
1676383053030123500,8.27212353515625,0.12449848651885986,13.486837387084961,-0.6584054827690125
1676383053040123600,8.28212353515625,0.1604115068912506,13.47726058959961,-0.6416460275650024
1676383053050122800,8.292122802734376,0.2561795711517334,13.120524406433105,-0.6057330369949341
1676383053060122600,8.30212255859375,0.31842881441116333,12.553098678588867,-0.5506663918495178
1676383053070122800,8.312122802734375,0.38067805767059326,12.476484298706055,-0.5506663918495178
1676383053080122600,8.32212255859375,0.4381389021873474,12.440570831298828,-0.5602431893348694
1676383053090122800,8.332122802734375,0.48602294921875,11.968914031982422,-0.5746083855628967
1676383053100122600,8.34212255859375,0.5003881454467773,11.638513565063477,-0.5674257874488831
1676383053110122800,8.352122802734375,0.5219359993934631,11.408670425415039,-0.5674257874488831
1676383053120122600,8.36212255859375,0.5219359993934631,11.26262378692627,-0.5937620401382446
1676383053130122800,8.372122802734374,0.5267243981361389,10.872368812561035,-0.6105214357376099
1676383053140122600,8.38212255859375,0.507570743560791,10.510845184326172,-0.6344634294509888
1676383053150123500,8.39212353515625,0.49559974670410156,10.494085311889648,-0.6488286852836609
1676383053160123400,8.402123291015625,0.4836287498474121,10.278607368469238,-0.6799532771110535
1676383053170123500,8.41212353515625,0.42377370595932007,9.897929191589355,-0.7015010714530945
1676383053180123400,8.422123291015625,0.40701428055763245,9.555558204650879,-0.6823474764823914
1676383053190123500,8.43212353515625,0.3758896589279175,9.524434089660645,-0.6847416758537292
1676383053200123400,8.442123291015625,0.363918662071228,9.19163990020752,-0.7015010714530945
1676383053210122500,8.45212255859375,0.3495534360408783,9.040804862976074,-0.7086837291717529
1676383053220122600,8.46212255859375,0.3471592366695404,8.916306495666504,-0.7326257228851318
1676383053230122500,8.47212255859375,0.33997663855552673,8.688857078552246,-0.7230489253997803
1676383053240122600,8.48212255859375,0.33039984107017517,8.418312072753906,-0.6991068720817566
1676383053250122800,8.492122802734375,0.304063618183136,8.25550651550293,-0.6823474764823914
1676383053260122600,8.50212255859375,0.33279404044151306,8.109460830688477,-0.6799532771110535
1676383053270122500,8.51212255859375,0.3447650372982025,7.834127426147461,-0.6727706789970398
1676383053280122600,8.52212255859375,0.3711012601852417,7.740753173828125,-0.6607996821403503
1676383053290122500,8.53212255859375,0.4141969084739685,7.75751256942749,-0.6631938815116882
1676383053300122600,8.54212255859375,0.4405331015586853,7.72399377822876,-0.6536170840263367
1676383053310122500,8.55212255859375,0.4644751250743866,7.565976619720459,-0.6368576288223267
1676383053320122600,8.56212255859375,0.49559974670410156,7.424718856811523,-0.6200982332229614
1676383053330122500,8.57212255859375,0.5099649429321289,7.367258071899414,-0.6057330369949341
1676383053340122600,8.58212255859375,0.524330198764801,7.305008888244629,-0.5817909836769104
1676383053350123500,8.59212353515625,0.5770025849342346,7.235576629638672,-0.5817909836769104
1676383053360123400,8.602123291015625,0.6105214357376099,7.2427592277526855,-0.5961562395095825
1676383053370123500,8.61212353515625,0.6416460275650024,7.324162483215332,-0.569819986820221
1676383053380123400,8.622123291015624,0.6655880808830261,7.340921878814697,-0.6057330369949341
1676383053390123500,8.63212353515625,0.6536170840263367,7.3576812744140625,-0.5530605912208557
1676383053400123400,8.642123291015626,0.6991068720817566,7.403171062469482,-0.5793967843055725
1676383053410122500,8.65212255859375,0.7086837291717529,7.453449249267578,-0.5674257874488831
1676383053420122600,8.66212255859375,0.7206547260284424,7.568370819091797,-0.5841852426528931
1676383053430122500,8.67212255859375,0.7398083209991455,7.755118370056152,-0.5961562395095825
1676383053440122600,8.68212255859375,0.7254431247711182,7.870040416717529,-0.5961562395095825
1676383053450122800,8.692122802734374,0.727837324142456,8.013691902160645,-0.6177040338516235
1676383053460122600,8.70212255859375,0.7230489253997803,8.126219749450684,-0.6320692300796509
1676383053470122800,8.712122802734376,0.6727706789970398,8.305785179138184,-0.6392518281936646
1676383053480122600,8.72212255859375,0.6631938815116882,8.561964988708496,-0.6584054827690125
1676383053490122800,8.732122802734375,0.6416460275650024,8.765471458435059,-0.7038952708244324
1676383053500122600,8.74212255859375,0.6105214357376099,9.009679794311523,-0.7015010714530945
1676383053510123500,8.75212353515625,0.5674257874488831,9.143755912780762,-0.7134721279144287
1676383053520123400,8.762123291015625,0.5410895943641663,9.285013198852539,-0.7158663272857666
1676383053530241000,8.772240966796875,0.5099649429321289,9.541193008422852,-0.7422025203704834
1676383053540241200,8.7822412109375,0.4620809257030487,9.773430824279785,-0.7350199222564697
1676383053550241000,8.792240966796875,0.42377370595932007,10.10861873626709,-0.7565677165985107
1676383053560241200,8.8022412109375,0.4213795065879822,10.424653053283691,-0.768538773059845
1676383053570241000,8.812240966796875,0.43095630407333374,10.465354919433594,-0.7398083209991455
1676383053580241200,8.8222412109375,0.4357447028160095,10.728716850280762,-0.7445967197418213
1676383053590241000,8.832240966796874,0.4572925269603729,11.095029830932617,-0.7541735172271729
1676383053600241200,8.8422412109375,0.43335050344467163,11.518803596496582,-0.727837324142456
1676383053610240300,8.852240234375,0.47884035110473633,11.547533988952637,-0.7038952708244324
1676383053620240400,8.862240478515625,0.507570743560791,11.693580627441406,-0.689530074596405
1676383053630240300,8.872240234375,0.5770025849342346,12.287342071533203,-0.7230489253997803
1676383053640240400,8.882240478515625,0.6177040338516235,12.404658317565918,-0.7038952708244324
1676383053650239500,8.892239501953124,0.6536170840263367,12.411840438842773,-0.6799532771110535
1676383053660239600,8.902239501953124,0.6847416758537292,12.727875709533691,-0.6751648783683777
1676383053670239500,8.912239501953126,0.7015010714530945,13.254599571228027,-0.6799532771110535
1676383053680239600,8.922239501953126,0.7422025203704834,13.276147842407227,-0.6991068720817566
1676383053690239500,8.932239501953125,0.7829039692878723,13.38628101348877,-0.6967126727104187
1676383053700239600,8.942239501953125,0.7733271718025208,13.534721374511719,-0.6943184733390808
1676383053710240500,8.952240478515625,0.7230489253997803,13.733440399169922,-0.7134721279144287
1676383053720240400,8.962240478515625,0.6703764796257019,14.08778190612793,-0.7182605266571045
1676383053730240500,8.972240478515625,0.6200982332229614,14.284106254577637,-0.7015010714530945
1676383053740240400,8.982240478515624,0.5937620401382446,14.461277961730957,-0.7565677165985107
1676383053750240500,8.992240478515624,0.5291185975074768,14.518738746643066,-0.7565677165985107
1676383053760240400,9.002240478515626,0.47165772318840027,14.54028606414795,-0.8044517636299133
1676383053770240500,9.012240478515626,0.4141969084739685,14.815918922424316,-0.7972691655158997
1676383053780240400,9.022240478515625,0.33039984107017517,14.942811012268066,-0.7972691655158997
1676383053790240500,9.032240478515625,0.2992752194404602,15.076886177062988,-0.8092401623725891
1676383053800240400,9.042240478515625,0.26575639843940735,15.098434448242188,-0.8212111592292786
1676383053810239700,9.05223974609375,0.2968810200691223,15.100829124450684,-0.828393816947937
1676383053820239600,9.062239501953124,0.3064578175544739,14.92605209350586,-0.8236053586006165
1676383053830239700,9.07223974609375,0.2992752194404602,15.02900218963623,-0.811634361743927
1676383053840239600,9.082239501953126,0.30885201692581177,15.143924713134766,-0.7709329724311829
1676383053850238700,9.09223876953125,0.3471592366695404,15.13913631439209,-0.7445967197418213
1676383053860238800,9.10223876953125,0.3998316824436188,14.933234214782715,-0.727837324142456
1676383053870238700,9.11223876953125,0.4596867263317108,14.768034934997559,-0.7254431247711182
1676383053880238800,9.12223876953125,0.507570743560791,14.679149627685547,-0.689530074596405
1676383053890238700,9.13223876953125,0.5195417404174805,14.765640258789062,-0.6416460275650024
1676383053900238800,9.14223876953125,0.5123591423034668,14.525920867919922,-0.5913678407669067
1676383053910239500,9.152239501953124,0.5219359993934631,14.478036880493164,-0.6009446382522583
1676383053920239600,9.162239501953126,0.524330198764801,14.310442924499512,-0.5889736413955688
1676383053930239500,9.172239501953126,0.5099649429321289,14.013562202453613,-0.5746083855628967
1676383053940239600,9.182239501953125,0.43335050344467163,13.63288402557373,-0.5578489899635315
1676383053950240300,9.192240234375,0.4165911078453064,13.570634841918945,-0.5099649429321289
1676383053960240400,9.202240478515625,0.3495534360408783,13.623307228088379,-0.4884171485900879
1676383053970240300,9.212240234375,0.2992752194404602,13.185168266296387,-0.4836287498474121
1676383053980240400,9.222240478515625,0.26096799969673157,13.003209114074707,-0.4692635238170624
1676383053990240300,9.232240234375,0.17956513166427612,12.766182899475098,-0.4572925269603729
1676383054000240400,9.242240478515624,0.13168109953403473,12.691962242126465,-0.4596867263317108
1676383054010240300,9.252240234375,0.0933738648891449,12.340014457702637,-0.44771572947502136
1676383054020240400,9.262240478515626,0.06224924325942993,12.17720890045166,-0.45489832758903503
1676383054030240300,9.272240234375,0.047884032130241394,11.806107521057129,-0.42616790533065796
1676383054040240400,9.282240478515625,0.040701430290937424,11.676820755004883,-0.4357447028160095
1676383054050239500,9.292239501953125,0.021547814831137657,11.344026565551758,-0.42377370595932007
1676383054060239400,9.3022392578125,0.019153613597154617,10.905887603759766,-0.40940847992897034
1676383054070239500,9.312239501953124,0.038307227194309235,10.858003616333008,-0.40222588181495667
1676383054080239400,9.3222392578125,0.05267243832349777,10.860398292541504,-0.37828385829925537
1676383054090239500,9.332239501953126,0.07422025501728058,10.405499458312988,-0.363918662071228
1676383054100239400,9.3422392578125,0.12210428714752197,10.008062362670898,-0.35434186458587646
1676383054110240300,9.352240234375,0.15562310814857483,9.857227325439453,-0.3687070608139038
1676383054120240400,9.362240478515625,0.16759411990642548,9.732728958129883,-0.3256114423274994
1676383054130240300,9.372240234375,0.17238251864910126,9.29458999633789,-0.3232172429561615
1676383054140240100,9.382240234375,0.181959331035614,9.256282806396484,-0.304063618183136
1676383054150241000,9.392240966796875,0.17717093229293823,9.019257545471191,-0.26815059781074524
1676383054160241200,9.4022412109375,0.17477671802043915,8.844480514526367,-0.2561795711517334
1676383054170241000,9.412240966796874,0.18914192914962769,8.554781913757324,-0.24899697303771973
1676383054180241200,9.4222412109375,0.1867477297782898,8.305785179138184,-0.24181437492370605
1676383054190241000,9.432240966796876,0.14604631066322327,8.111854553222656,-0.2059013396501541
1676383054200241200,9.4422412109375,0.14604631066322327,8.054393768310547,-0.17477671802043915
1676383054210241000,9.452240966796875,0.10295066982507706,7.9083476066589355,-0.14604631066322327
1676383054220241200,9.4622412109375,0.08619125932455063,7.850886821746826,-0.10534487664699554
1676383054230241000,9.472240966796875,0.043095629662275314,7.747935771942139,-0.10295066982507706
1676383054240241200,9.4822412109375,0.028730420395731926,7.585130214691162,-0.10295066982507706
1676383054250240300,9.492240234375,-0.009576806798577309,7.453449249267578,-0.090979665517807
1676383054260240100,9.502240234375,-0.0071826050989329815,7.269095420837402,-0.090979665517807
1676383054270240300,9.512240234375,-0.035913024097681046,7.28346061706543,-0.08619125932455063
1676383054280240000,9.522240234375,-0.05746084079146385,7.386411666870117,-0.05985504388809204
1676383054290240300,9.532240234375,-0.0933738648891449,7.403171062469482,-0.05985504388809204
1676383054300240100,9.542240234375,-0.10295066982507706,7.28346061706543,-0.043095629662275314
1676383054310240300,9.552240234375,-0.11971008777618408,7.269095420837402,-0.0454898327589035
1676383054320240000,9.562240234375,-0.12210428714752197,7.295432090759277,-0.05506663769483566
1676383054330240300,9.572240234375,-0.10773907601833344,7.319374084472656,-0.05746084079146385
1676383054340240100,9.582240234375,-0.13407529890537262,7.431901454925537,-0.06464344263076782
1676383054350241000,9.592240966796876,-0.12449848651885986,7.50851583480835,-0.08379705995321274
1676383054360241200,9.6022412109375,-0.1412578970193863,7.623437404632568,-0.06703764945268631
1676383054370241000,9.612240966796875,-0.12449848651885986,7.66653299331665,-0.06224924325942993
1676383054380241200,9.6222412109375,-0.1173158809542656,7.803002834320068,-0.10534487664699554
1676383054390241000,9.632240966796875,-0.08379705995321274,7.9538373947143555,-0.12689268589019775
1676383054400241200,9.6422412109375,-0.05746084079146385,8.121431350708008,-0.17477671802043915
1676383054410241000,9.652240966796874,-0.031124621629714966,8.31057357788086,-0.1843535304069519
1676383054420241200,9.6622412109375,-0.011971008032560349,8.528446197509766,-0.1843535304069519
1676383054430241000,9.672240966796876,0.004788403399288654,8.691251754760742,-0.2059013396501541
1676383054440241200,9.6822412109375,0.011971008032560349,8.844480514526367,-0.22026655077934265
1676383054450240300,9.692240234375,0.05267243832349777,9.014469146728516,-0.27054479718208313
1676383054460240400,9.702240478515625,0.07182604819536209,9.275436401367188,-0.2944868206977844
1676383054470240300,9.712240234375,0.08140286058187485,9.514857292175293,-0.3447650372982025
1676383054480240400,9.722240478515625,0.090979665517807,9.699210166931152,-0.35673606395721436
1676383054490240300,9.732240234375,0.08858546614646912,9.948206901550293,-0.38067805767059326
1676383054500240400,9.742240478515624,0.10055647045373917,10.261847496032715,-0.40222588181495667
1676383054510240300,9.752240234375,0.10055647045373917,10.479720115661621,-0.45250412821769714
1676383054520240400,9.762240478515626,0.08858546614646912,10.616189956665039,-0.48602294921875
1676383054530240300,9.772240234375,0.05267243832349777,10.848426818847656,-0.5123591423034668
1676383054540240400,9.782240478515625,0.028730420395731926,11.224316596984863,-0.524330198764801
1676383054550241000,9.792240966796875,-0.028730420395731926,11.576264381408691,-0.5650315880775452
1676383054560241200,9.8022412109375,-0.028730420395731926,11.571475982666016,-0.5674257874488831
1676383054570241000,9.812240966796875,-0.05027823522686958,11.92821216583252,-0.5841852426528931
1676383054580241200,9.8222412109375,-0.08619125932455063,12.227487564086914,-0.608127236366272
1676383054590241000,9.832240966796874,-0.10295066982507706,12.344802856445312,-0.629675030708313
1676383054600241200,9.8422412109375,-0.1628057211637497,12.586617469787598,-0.5961562395095825
1676383054610241000,9.852240966796876,-0.181959331035614,13.048698425292969,-0.6057330369949341
1676383054620241200,9.8622412109375,-0.15801730751991272,13.039121627807617,-0.6129156351089478
1676383054630241000,9.872240966796875,-0.16759411990642548,13.029544830322266,-0.5937620401382446
1676383054640241200,9.8822412109375,-0.19153612852096558,13.585000038146973,-0.5602431893348694
1676383054650240300,9.892240234375,-0.17238251864910126,13.774141311645508,-0.5674257874488831
1676383054660240100,9.902240234375,-0.13407529890537262,13.517962455749512,-0.5386953949928284
1676383054670240300,9.912240234375,-0.090979665517807,13.956101417541504,-0.5291185975074768
1676383054680240000,9.922240234375,-0.05746084079146385,14.308048248291016,-0.5530605912208557
1676383054690240300,9.932240234375,0.002394201699644327,14.193126678466797,-0.5386953949928284
1676383054700240100,9.942240234375,0.023942016065120697,14.12130069732666,-0.5315127968788147
1676383054710240300,9.952240234375,0.0454898327589035,14.35832691192627,-0.5410895943641663
1676383054720240000,9.962240234375,0.07661445438861847,14.511555671691895,-0.5889736413955688
1676383054730240300,9.972240234375,0.1412578970193863,14.494796752929688,-0.6392518281936646
1676383054740240100,9.982240234375,0.1364694982767105,14.592958450317383,-0.6607996821403503
1676383054750241000,9.992240966796874,0.15083470940589905,14.784793853759766,-0.6943184733390808
1676383054760241200,10.0022412109375,0.12928688526153564,14.3702974319458,-0.7038952708244324
1676383054770241000,10.012240966796876,0.1149216815829277,14.633660316467285,-0.7230489253997803
1676383054780241200,10.0222412109375,0.12928688526153564,14.84704303741455,-0.811634361743927
1676383054790241000,10.032240966796875,0.12689268589019775,14.468460083007812,-0.8236053586006165
1676383054800241200,10.0422412109375,0.08140286058187485,14.77761173248291,-0.8451532125473022
1676383054810241000,10.052240966796875,0.08379705995321274,14.674361228942871,-0.8619126081466675
1676383054820241200,10.0622412109375,0.038307227194309235,14.145242691040039,-0.8379706144332886
1676383054830241000,10.072240966796874,0.05985504388809204,14.5714111328125,-0.8810662031173706
1676383054840241200,10.0822412109375,0.07900865375995636,14.621688842773438,-0.9385270476341248
1676383054850240500,10.092240478515626,0.021547814831137657,13.87230396270752,-0.8475474119186401
1676383054860240400,10.102240478515625,0.026336219161748886,14.150031089782715,-0.8379706144332886
1676383054870240500,10.112240478515625,0.026336219161748886,13.99440860748291,-0.7948749661445618
1676383054880240400,10.122240478515625,0.07422025501728058,13.067852020263672,-0.7110779285430908
1676383054890240300,10.132240234375,0.10295066982507706,13.443741798400879,-0.7613561153411865
1676383054900240400,10.142240478515625,0.17956513166427612,13.929764747619629,-0.7613561153411865
1676383054910240300,10.152240234375,0.21547815203666687,12.80927848815918,-0.7182605266571045
1676383054920240400,10.162240478515624,0.19393034279346466,12.452542304992676,-0.629675030708313
1676383054930240300,10.172240234375,0.2346317619085312,12.96729564666748,-0.629675030708313
1676383054940240400,10.182240478515626,0.29209262132644653,12.277765274047852,-0.5770025849342346
1676383054950241300,10.1922412109375,0.33758243918418884,11.810895919799805,-0.5770025849342346
1676383054960241200,10.2022412109375,0.3878606855869293,12.138901710510254,-0.6009446382522583
1676383054970241300,10.2122412109375,0.3902548849582672,11.973702430725098,-0.5650315880775452
1676383054980241200,10.2222412109375,0.37828385829925537,11.200374603271484,-0.5291185975074768
1676383054990241300,10.2322412109375,0.3758896589279175,11.130943298339844,-0.5482721924781799
1676383055000241200,10.2422412109375,0.3902548849582672,11.20276927947998,-0.5578489899635315
1676383055010241300,10.2522412109375,0.3974374830722809,10.834061622619629,-0.5817909836769104
1676383055020241200,10.2622412109375,0.4118026793003082,10.360010147094727,-0.6009446382522583
1676383055030241300,10.2722412109375,0.37828385829925537,10.295366287231445,-0.5961562395095825
1676383055040241200,10.2822412109375,0.3495534360408783,10.35761547088623,-0.5841852426528931
1676383055050240500,10.292240478515625,0.3734954595565796,10.111013412475586,-0.629675030708313
1676383055060240400,10.302240478515625,0.35434186458587646,9.557952880859375,-0.6248866319656372
1676383055070240500,10.312240478515625,0.35913026332855225,9.31613826751709,-0.6344634294509888
1676383055080240400,10.322240478515624,0.35913026332855225,9.507674217224121,-0.6751648783683777
1676383055090240500,10.332240478515626,0.3734954595565796,9.344868659973145,-0.6488286852836609
1676383055100240400,10.342240478515626,0.3902548849582672,8.985737800598145,-0.667982280254364
1676383055110240500,10.352240478515625,0.38067805767059326,8.770259857177734,-0.6560112833976746
1676383055120240400,10.362240478515625,0.3687070608139038,8.765471458435059,-0.6607996821403503
1676383055130240500,10.372240478515625,0.3902548849582672,8.576330184936523,-0.6607996821403503
1676383055140240400,10.382240478515625,0.40222588181495667,8.25311279296875,-0.6512228846549988
1676383055150241000,10.392240966796875,0.4118026793003082,8.248324394226074,-0.6488286852836609
1676383055160241200,10.4022412109375,0.4429273009300232,8.293813705444336,-0.6512228846549988
1676383055170241000,10.412240966796874,0.47165772318840027,8.109460830688477,-0.6416460275650024
1676383055180241200,10.4222412109375,0.47644615173339844,7.9322896003723145,-0.6224924325942993
1676383055190241000,10.432240966796876,0.4884171485900879,7.910741806030273,-0.5961562395095825
1676383055200241200,10.4422412109375,0.49799394607543945,7.860463619232178,-0.5841852426528931
1676383055210240300,10.452240234375,0.5171475410461426,7.738358974456787,-0.5793967843055725
1676383055220240100,10.462240234375,0.524330198764801,7.726387977600098,-0.5434837937355042
1676383055230240300,10.472240234375,0.5722141861915588,7.81257963180542,-0.5674257874488831
1676383055240240000,10.482240234375,0.569819986820221,7.831733226776123,-0.5530605912208557
1676383055250240300,10.492240234375,0.5793967843055725,7.709628582000732,-0.5267243981361389
1676383055260240100,10.502240234375,0.5985504388809204,7.652167797088623,-0.5051765441894531
1676383055270240300,10.512240234375,0.6177040338516235,7.740753173828125,-0.4836287498474121
1676383055280240000,10.522240234375,0.6153098344802856,7.8437042236328125,-0.47884035110473633
1676383055290240300,10.532240234375,0.6272808313369751,7.939472198486328,-0.5099649429321289
1676383055300240100,10.542240234375,0.6248866319656372,8.07115364074707,-0.5051765441894531
1676383055310240300,10.552240234375,0.6368576288223267,8.1046724319458,-0.507570743560791
1676383055320240000,10.562240234375,0.6272808313369751,8.186075210571289,-0.4908113479614258
1676383055330240300,10.572240234375,0.6177040338516235,8.305785179138184,-0.49320554733276367
1676383055340240100,10.582240234375,0.5961562395095825,8.454225540161133,-0.4908113479614258
1676383055350241000,10.592240966796876,0.586579442024231,8.662521362304688,-0.5195417404174805
1676383055360241200,10.6022412109375,0.5817909836769104,8.810961723327637,-0.5386953949928284
1676383055370241000,10.612240966796875,0.5674257874488831,8.98813247680664,-0.5363011956214905
1676383055380241200,10.6222412109375,0.5315127968788147,9.148544311523438,-0.5530605912208557
1676383055390241000,10.632240966796875,0.5195417404174805,9.296984672546387,-0.5817909836769104
1676383055400241200,10.6422412109375,0.49320554733276367,9.493309020996094,-0.5961562395095825
1676383055410241000,10.652240966796874,0.4812345504760742,9.660902976989746,-0.5937620401382446
1676383055420241200,10.6622412109375,0.4644751250743866,9.845256805419922,-0.6200982332229614
1676383055430241000,10.672240966796876,0.47165772318840027,10.170867919921875,-0.6368576288223267
1676383055440241200,10.6822412109375,0.45010992884635925,10.386345863342285,-0.6607996821403503
1676383055450240300,10.692240234375,0.4381389021873474,10.474931716918945,-0.6584054827690125
1676383055460240100,10.702240234375,0.4381389021873474,10.668862342834473,-0.6320692300796509
1676383055470240300,10.712240234375,0.44771572947502136,11.150096893310547,-0.6607996821403503
1676383055480240000,10.722240234375,0.47644615173339844,11.229104995727539,-0.6536170840263367
1676383055490240300,10.732240234375,0.49799394607543945,11.339238166809082,-0.6560112833976746
1676383055500240100,10.742240234375,0.5099649429321289,11.640908241271973,-0.6607996821403503
1676383055510241000,10.752240966796874,0.49799394607543945,11.83962631225586,-0.6488286852836609
1676383055520241200,10.7622412109375,0.5027823448181152,12.009614944458008,-0.6320692300796509
1676383055530241000,10.772240966796875,0.5267243981361389,12.30170726776123,-0.6248866319656372
1676383055540241200,10.7822412109375,0.5578489899635315,12.608165740966797,-0.6272808313369751
1676383055550241000,10.792240966796875,0.569819986820221,12.6273193359375,-0.5961562395095825
1676383055560241200,10.8022412109375,0.569819986820221,12.581829071044922,-0.6177040338516235
1676383055570241000,10.812240966796875,0.5817909836769104,12.9026517868042,-0.5961562395095825
1676383055580241200,10.8222412109375,0.5578489899635315,13.132495880126953,-0.5961562395095825
1676383055590241000,10.832240966796874,0.545877993106842,13.312060356140137,-0.586579442024231
1676383055600241200,10.8422412109375,0.5315127968788147,13.357550621032715,-0.5722141861915588
1676383055610240300,10.852240234375,0.5315127968788147,13.664008140563965,-0.5913678407669067
1676383055620240400,10.862240478515625,0.5051765441894531,13.65682601928711,-0.608127236366272
1676383055630240300,10.872240234375,0.47405192255973816,13.72625732421875,-0.6320692300796509
1676383055640240400,10.882240478515625,0.43095630407333374,13.898639678955078,-0.6320692300796509
1676383055650239500,10.892239501953124,0.4141969084739685,14.06383991241455,-0.6368576288223267
1676383055660239400,10.9022392578125,0.3902548849582672,14.032715797424316,-0.6416460275650024
1676383055670239500,10.912239501953126,0.363918662071228,14.193126678466797,-0.6703764796257019
1676383055680239400,10.9222392578125,0.33758243918418884,14.226645469665527,-0.6919242739677429
1676383055690239500,10.932239501953125,0.3423708379268646,14.073416709899902,-0.6847416758537292
1676383055700239400,10.9422392578125,0.3447650372982025,14.111723899841309,-0.6943184733390808
1676383055710239500,10.952239501953125,0.33518823981285095,14.24579906463623,-0.7134721279144287
1676383055720239400,10.9622392578125,0.31364041566848755,14.2338285446167,-0.6871358752250671
1676383055730239500,10.972239501953124,0.3232172429561615,14.068628311157227,-0.6584054827690125
1676383055740239400,10.9822392578125,0.3232172429561615,14.082993507385254,-0.6847416758537292
1676383055750240300,10.992240234375,0.3495534360408783,14.104541778564453,-0.6943184733390808
1676383055760240400,11.002240478515626,0.3423708379268646,13.910611152648926,-0.6392518281936646
1676383055770240300,11.012240234375,0.36152446269989014,13.778929710388184,-0.6440402865409851
1676383055780240400,11.022240478515625,0.35673606395721436,13.915399551391602,-0.6224924325942993
1676383055790240300,11.032240234375,0.35673606395721436,13.470078468322754,-0.6033388376235962
1676383055800240400,11.042240478515625,0.36152446269989014,13.36233901977539,-0.5793967843055725
1676383055810240300,11.052240234375,0.3495534360408783,13.412616729736328,-0.5674257874488831
1676383055820240400,11.062240478515625,0.30885201692581177,13.041516304016113,-0.507570743560791
1676383055830240300,11.072240234375,0.2968810200691223,12.950536727905273,-0.5003881454467773
1676383055840240400,11.082240478515626,0.26096799969673157,12.847585678100586,-0.47884035110473633
1676383055850239700,11.09223974609375,0.24899697303771973,12.617742538452148,-0.44532153010368347
1676383055860239600,11.102239501953125,0.2298433631658554,12.179603576660156,-0.44532153010368347
1676383055870239700,11.11223974609375,0.1867477297782898,12.280159950256348,-0.42856210470199585
1676383055880239600,11.122239501953125,0.15322890877723694,11.96173095703125,-0.4381389021873474
1676383055890239700,11.13223974609375,0.1173158809542656,11.944971084594727,-0.40462008118629456
1676383055900239600,11.142239501953124,0.07661445438861847,11.578659057617188,-0.38067805767059326
1676383055910240300,11.152240234375,0.0694318488240242,11.425429344177246,-0.3878606855869293
1676383055920240400,11.162240478515624,0.07900865375995636,11.099818229675293,-0.3902548849582672
1676383055930240300,11.172240234375,0.05027823522686958,10.953771591186523,-0.40940847992897034
1676383055940240400,11.182240478515626,0.05506663769483566,10.735899925231934,-0.40940847992897034
1676383055950241300,11.1922412109375,0.05027823522686958,10.613795280456543,-0.3998316824436188
1676383055960241200,11.2022412109375,0.05267243832349777,10.343250274658203,-0.40462008118629456
1676383055970241300,11.2122412109375,0.0454898327589035,10.149320602416992,-0.3926490843296051
1676383055980241200,11.2222412109375,0.043095629662275314,10.055946350097656,-0.395043283700943
1676383055990241300,11.2322412109375,0.05506663769483566,9.873987197875977,-0.40462008118629456
1676383056000241200,11.2422412109375,0.06224924325942993,9.519645690917969,-0.3974374830722809
1676383056010241300,11.2522412109375,0.05746084079146385,9.421483039855957,-0.3734954595565796
1676383056020241200,11.2622412109375,0.06703764945268631,9.213187217712402,-0.35913026332855225
1676383056030241300,11.2722412109375,0.0694318488240242,9.117419242858887,-0.3471592366695404
1676383056040241200,11.2822412109375,0.05746084079146385,8.849268913269043,-0.3519476354122162
1676383056050240500,11.292240478515625,0.05027823522686958,8.818143844604492,-0.3519476354122162
1676383056060240400,11.302240478515625,0.05267243832349777,8.595483779907227,-0.31364041566848755
1676383056070240500,11.312240478515625,0.07661445438861847,8.432677268981934,-0.304063618183136
1676383056080240400,11.322240478515624,0.043095629662275314,8.372822761535645,-0.2992752194404602
1676383056090240500,11.332240478515626,0.038307227194309235,8.281843185424805,-0.2777273952960968
1676383056100240400,11.342240478515626,0.05506663769483566,8.10706615447998,-0.2537853717803955
1676383056110240500,11.352240478515625,0.0071826050989329815,7.9945387840271,-0.2346317619085312
1676383056120240400,11.362240478515625,0.004788403399288654,8.008903503417969,-0.2298433631658554
1676383056130240500,11.372240478515625,-0.0071826050989329815,7.951443195343018,-0.22026655077934265
1676383056140240400,11.382240478515625,-0.035913024097681046,7.872434616088867,-0.20350714027881622
1676383056150241000,11.392240966796875,-0.033518824726343155,7.759906768798828,-0.19871874153614044
1676383056160241200,11.4022412109375,-0.05506663769483566,7.783848762512207,-0.1843535304069519
1676383056170241000,11.412240966796874,-0.08379705995321274,7.803002834320068,-0.16759411990642548
1676383056180241200,11.4222412109375,-0.0933738648891449,7.798214435577393,-0.1628057211637497
1676383056190241000,11.432240966796876,-0.0933738648891449,7.7742719650268555,-0.17717093229293823
1676383056200241200,11.4422412109375,-0.11013327538967133,7.874828815460205,-0.15083470940589905
1676383056210241000,11.452240966796875,-0.12210428714752197,7.89158821105957,-0.15801730751991272
1676383056220241200,11.4622412109375,-0.12689268589019775,7.934683799743652,-0.17238251864910126
1676383056230241000,11.472240966796875,-0.1364694982767105,8.01608657836914,-0.1867477297782898
1676383056240241200,11.4822412109375,-0.1412578970193863,8.078335762023926,-0.19393034279346466
1676383056250240300,11.492240234375,-0.14365209639072418,8.238747596740723,-0.18914192914962769
1676383056260240100,11.502240234375,-0.14844051003456116,8.34648609161377,-0.2082955539226532
1676383056270240300,11.512240234375,-0.15322890877723694,8.487744331359863,-0.23702596127986908
1676383056280240000,11.522240234375,-0.15083470940589905,8.600272178649902,-0.23942017555236816
1676383056290240300,11.532240234375,-0.1173158809542656,8.748712539672852,-0.2849099934101105
1676383056300240100,11.542240234375,-0.09576806426048279,8.911518096923828,-0.2992752194404602
1676383056310240300,11.552240234375,-0.08858546614646912,9.143755912780762,-0.33518823981285095
1676383056320240000,11.562240234375,-0.06464344263076782,9.332897186279297,-0.35913026332855225
1676383056330240300,11.572240234375,-0.043095629662275314,9.471760749816895,-0.35913026332855225
1676383056340240100,11.582240234375,-0.021547814831137657,9.644144058227539,-0.3974374830722809
1676383056350241000,11.592240966796876,0.004788403399288654,9.794978141784668,-0.43095630407333374
1676383056360241200,11.6022412109375,0.023942016065120697,9.924264907836914,-0.45489832758903503
1676383056370241000,11.612240966796875,0.033518824726343155,10.223540306091309,-0.47884035110473633
1676383056380241200,11.6222412109375,0.06703764945268631,10.422259330749512,-0.47644615173339844
1676383056390241000,11.632240966796875,0.07182604819536209,10.632948875427246,-0.5291185975074768
1676383056400241200,11.6422412109375,0.07422025501728058,10.750265121459961,-0.5530605912208557
1676383056410241000,11.652240966796874,0.10295066982507706,11.016021728515625,-0.5339069962501526
1676383056420241200,11.6622412109375,0.06464344263076782,11.193192481994629,-0.5554547905921936
1676383056430241000,11.672240966796876,0.043095629662275314,11.537957191467285,-0.5770025849342346
1676383056440241200,11.6822412109375,0.05746084079146385,11.542745590209961,-0.5841852426528931
1676383056450240300,11.692240234375,0.009576806798577309,11.784560203552246,-0.5889736413955688
1676383056460240100,11.702240234375,-0.002394201699644327,12.009614944458008,-0.586579442024231
1676383056470240300,11.712240234375,-0.05506663769483566,12.363956451416016,-0.5889736413955688
1676383056480240000,11.722240234375,-0.10055647045373917,12.35916805267334,-0.5961562395095825
1676383056490240300,11.732240234375,-0.11971008777618408,12.526762962341309,-0.5770025849342346
1676383056500240100,11.742240234375,-0.13407529890537262,12.584223747253418,-0.5554547905921936
1676383056510240300,11.752240234375,-0.16759411990642548,13.000814437866211,-0.5506663918495178
1676383056520240000,11.762240234375,-0.1604115068912506,13.027151107788086,-0.5434837937355042
1676383056530240300,11.772240234375,-0.1628057211637497,13.060669898986816,-0.5482721924781799
1676383056540240100,11.782240234375,-0.17717093229293823,13.338397026062012,-0.5410895943641663
1676383056550241000,11.792240966796875,-0.1412578970193863,13.45092487335205,-0.5434837937355042
1676383056560241200,11.8022412109375,-0.13407529890537262,13.225869178771973,-0.5171475410461426
1676383056570241000,11.812240966796875,-0.08619125932455063,13.54429817199707,-0.5530605912208557
1676383056580241200,11.8222412109375,-0.026336219161748886,13.671191215515137,-0.5434837937355042
1676383056590241000,11.832240966796874,0.021547814831137657,13.611335754394531,-0.5817909836769104
1676383056600241200,11.8422412109375,0.047884032130241394,13.812448501586914,-0.608127236366272
1676383056610241000,11.852240966796876,0.09576806426048279,13.805266380310059,-0.6344634294509888
1676383056620241200,11.8622412109375,0.11252748221158981,13.675979614257812,-0.6488286852836609
1676383056630241000,11.872240966796875,0.16998831927776337,13.9369478225708,-0.6584054827690125
1676383056640241200,11.8822412109375,0.19393034279346466,13.810054779052734,-0.7206547260284424
1676383056650240300,11.892240234375,0.20350714027881622,13.711892127990723,-0.7158663272857666
1676383056660240100,11.902240234375,0.20111294090747833,13.917794227600098,-0.7469909191131592
1676383056670240300,11.912240234375,0.19393034279346466,13.853150367736816,-0.7613561153411865
1676383056680240000,11.922240234375,0.181959331035614,13.467683792114258,-0.7589619159698486
1676383056690240300,11.932240234375,0.1867477297782898,13.532327651977539,-0.7637503147125244
1676383056700240100,11.942240234375,0.16998831927776337,13.738228797912598,-0.7805097699165344
1676383056710240300,11.952240234375,0.15083470940589905,13.582605361938477,-0.8020575642585754
1676383056720240000,11.962240234375,0.1149216815829277,13.326425552368164,-0.7829039692878723
1676383056730240300,11.972240234375,0.07900865375995636,13.307271957397461,-0.7374141216278076
1676383056740240100,11.982240234375,0.0933738648891449,13.166014671325684,-0.706289529800415
1676383056750241000,11.992240966796874,0.07422025501728058,12.828432083129883,-0.6919242739677429
1676383056760241000,12.002240966796874,0.08140286058187485,12.53633975982666,-0.6607996821403503
1676383056770241000,12.012240966796876,0.08858546614646912,12.84279727935791,-0.667982280254364
1676383056780241000,12.022240966796875,0.15322890877723694,12.689568519592285,-0.6631938815116882
1676383056790241000,12.032240966796875,0.16519992053508759,12.213122367858887,-0.6248866319656372
1676383056800241000,12.042240966796875,0.15801730751991272,11.830049514770508,-0.5817909836769104
1676383056810241000,12.052240966796875,0.16998831927776337,12.122142791748047,-0.5770025849342346
1676383056820241200,12.0622412109375,0.21787235140800476,11.700762748718262,-0.5506663918495178
1676383056830241000,12.072240966796874,0.26575639843940735,11.360786437988281,-0.5554547905921936
1676383056840241200,12.0822412109375,0.304063618183136,11.332056045532227,-0.5722141861915588
1676383056850240300,12.092240234375,0.35673606395721436,11.413458824157715,-0.5602431893348694
1676383056860240100,12.102240234375,0.38067805767059326,10.896310806274414,-0.5339069962501526
1676383056870240300,12.112240234375,0.3902548849582672,10.635343551635742,-0.5339069962501526
1676383056880240000,12.122240234375,0.4118026793003082,10.59464168548584,-0.5434837937355042
1676383056890240300,12.132240234375,0.44532153010368347,10.474931716918945,-0.5602431893348694
1676383056900240100,12.142240234375,0.4812345504760742,10.187627792358398,-0.5578489899635315
1676383056910240300,12.152240234375,0.4668693244457245,10.053552627563477,-0.569819986820221
1676383056920240000,12.162240234375,0.47644615173339844,10.020033836364746,-0.5650315880775452
1676383056930240300,12.172240234375,0.44771572947502136,9.718363761901855,-0.5650315880775452
1676383056940240100,12.182240234375,0.42616790533065796,9.375992774963379,-0.5578489899635315
1676383056950241000,12.192240966796875,0.43335050344467163,9.344868659973145,-0.569819986820221
1676383056960241200,12.2022412109375,0.44771572947502136,9.457395553588867,-0.6272808313369751
1676383056970241000,12.212240966796875,0.45250412821769714,9.148544311523438,-0.6224924325942993
1676383056980241200,12.2222412109375,0.40940847992897034,8.889969825744629,-0.6177040338516235
1676383056990241000,12.232240966796875,0.40462008118629456,9.009679794311523,-0.5961562395095825
1676383057000241200,12.2422412109375,0.3974374830722809,8.846874237060547,-0.5985504388809204
1676383057010240300,12.252240234375,0.40701428055763245,8.478167533874512,-0.5793967843055725
1676383057020240100,12.262240234375,0.3926490843296051,8.415918350219727,-0.5841852426528931
1676383057030240300,12.272240234375,0.4141969084739685,8.605060577392578,-0.6177040338516235
1676383057040240000,12.282240234375,0.40701428055763245,8.521263122558594,-0.5889736413955688
1676383057050239200,12.2922392578125,0.42616790533065796,8.279448509216309,-0.5482721924781799
1676383057060239400,12.3022392578125,0.4189853072166443,8.202834129333496,-0.5410895943641663
1676383057070239200,12.3122392578125,0.43095630407333374,8.224382400512695,-0.524330198764801
1676383057080239400,12.3222392578125,0.4381389021873474,8.1046724319458,-0.5147533416748047
1676383057090239500,12.332239501953126,0.4620809257030487,8.054393768310547,-0.5267243981361389
1676383057100239400,12.3422392578125,0.507570743560791,8.190863609313965,-0.5410895943641663
1676383057110239200,12.3522392578125,0.5219359993934631,8.260294914245605,-0.5195417404174805
1676383057120239400,12.3622392578125,0.5386953949928284,8.142979621887207,-0.5027823448181152
1676383057130239200,12.3722392578125,0.5506663918495178,8.075942039489746,-0.49559974670410156
1676383057140239400,12.3822392578125,0.5506663918495178,8.133402824401855,-0.4692635238170624
1676383057150240300,12.392240234375,0.5674257874488831,8.23156452178955,-0.49320554733276367
1676383057160240000,12.402240234375,0.5985504388809204,8.324938774108887,-0.49320554733276367
1676383057170240300,12.412240234375,0.6153098344802856,8.370428085327148,-0.4812345504760742
1676383057180240100,12.422240234375,0.6344634294509888,8.485349655151367,-0.49320554733276367
1676383057190240300,12.432240234375,0.6416460275650024,8.571541786193848,-0.4884171485900879
1676383057200240000,12.442240234375,0.6368576288223267,8.636184692382812,-0.4692635238170624
1676383057210240300,12.452240234375,0.6200982332229614,8.748712539672852,-0.4812345504760742
1676383057220240400,12.462240478515625,0.6248866319656372,8.906729698181152,-0.4908113479614258
1676383057230240300,12.472240234375,0.6057330369949341,9.122207641601562,-0.5099649429321289
1676383057240240400,12.482240478515624,0.569819986820221,9.28261947631836,-0.545877993106842
1676383057250239500,12.492239501953126,0.5578489899635315,9.3735990524292,-0.5506663918495178
1676383057260239400,12.5022392578125,0.524330198764801,9.486125946044922,-0.545877993106842
1676383057270239500,12.512239501953125,0.5003881454467773,9.624990463256836,-0.5602431893348694
1676383057280239400,12.5222392578125,0.47884035110473633,9.857227325439453,-0.5913678407669067
1676383057290239500,12.532239501953125,0.45489832758903503,10.082283020019531,-0.6033388376235962
1676383057300239400,12.5422392578125,0.42616790533065796,10.252270698547363,-0.608127236366272
1676383057310240300,12.552240234375,0.4118026793003082,10.328885078430176,-0.6200982332229614
1676383057320240400,12.562240478515625,0.38546648621559143,10.419864654541016,-0.6200982332229614
1676383057330240300,12.572240234375,0.3758896589279175,10.762235641479492,-0.6009446382522583
1676383057340240400,12.582240478515626,0.36152446269989014,10.980108261108398,-0.6129156351089478
1676383057350241300,12.5922412109375,0.38067805767059326,11.126154899597168,-0.6033388376235962
1676383057360241200,12.6022412109375,0.3687070608139038,11.288960456848145,-0.608127236366272
1676383057370241300,12.6122412109375,0.37828385829925537,11.518803596496582,-0.6009446382522583
1676383057380241200,12.6222412109375,0.4118026793003082,11.628936767578125,-0.5937620401382446
1676383057390241300,12.6322412109375,0.43095630407333374,11.760618209838867,-0.5961562395095825
1676383057400241200,12.6422412109375,0.4405331015586853,11.901875495910645,-0.5961562395095825
1676383057410240300,12.652240234375,0.47644615173339844,12.064682006835938,-0.569819986820221
1676383057420240400,12.662240478515624,0.4884171485900879,12.249034881591797,-0.5530605912208557
1676383057430240300,12.672240234375,0.5195417404174805,12.423811912536621,-0.5578489899635315
1676383057440240400,12.682240478515626,0.5291185975074768,12.490849494934082,-0.586579442024231
1676383057450239500,12.692239501953125,0.5554547905921936,12.543521881103516,-0.5506663918495178
1676383057460239400,12.7022392578125,0.5482721924781799,12.883498191833496,-0.5650315880775452
1676383057470239500,12.712239501953125,0.5339069962501526,12.883498191833496,-0.5482721924781799
1676383057480239400,12.7222392578125,0.5195417404174805,12.984055519104004,-0.5554547905921936
1676383057490239500,12.732239501953124,0.49799394607543945,13.05588150024414,-0.5746083855628967
1676383057500239400,12.7422392578125,0.49559974670410156,13.189956665039062,-0.5722141861915588
1676383057510239200,12.7522392578125,0.4429273009300232,13.256994247436523,-0.5913678407669067
1676383057520239400,12.7622392578125,0.40222588181495667,13.326425552368164,-0.5793967843055725
1676383057530239200,12.7722392578125,0.3711012601852417,13.429376602172852,-0.6440402865409851
1676383057540239400,12.7822392578125,0.3495534360408783,13.50838565826416,-0.6368576288223267
1676383057550240300,12.792240234375,0.3256114423274994,13.326425552368164,-0.6392518281936646
1676383057560240000,12.802240234375,0.2944868206977844,13.338397026062012,-0.6488286852836609
