time,seconds_elapsed,z,y,x
1676383045057350000,0.299349853515625,5.990592002868652,8.499714851379395,-0.14844051003456116
1676383045067350000,0.30935009765625,5.863699436187744,8.660126686096191,-0.47644615173339844
1676383045077348900,0.319348876953125,6.124667167663574,8.83011531829834,-0.3902548849582672
1676383045087348500,0.329348388671875,6.268319129943848,9.040804862976074,0.0071826050989329815
1676383045097348000,0.33934814453125,6.040870189666748,9.153332710266113,0.7637503147125244
1676383045107348200,0.34934814453125,5.463867664337158,9.280224800109863,1.7166426181793213
1676383045117348000,0.35934814453125,3.1316158771514893,9.292196273803711,2.121262788772583
1676383045127348000,0.369347900390625,4.110844135284424,8.669703483581543,3.021482467651367
1676383045137347800,0.379347900390625,3.912125587463379,8.499714851379395,3.043030261993408
1676383045147345400,0.389345458984375,4.062960147857666,8.226776123046875,2.7940332889556885
1676383045157342200,0.39934228515625,4.266467571258545,7.635408401489258,2.7126305103302
1676383045167339500,0.409339599609375,4.000710964202881,7.484573841094971,2.896984100341797
1676383045177337000,0.419337158203125,3.4093432426452637,7.882011413574219,3.1914708614349365
1676383045187334700,0.429334716796875,2.784456491470337,8.13100814819336,3.44765043258667
1676383045197332500,0.43933251953125,2.427720546722412,8.274660110473633,3.5266590118408203
1676383045207330600,0.44933056640625,2.31758713722229,8.370428085327148,3.512293815612793
1676383045217329000,0.459328857421875,2.4444799423217773,8.473379135131836,3.3710360527038574
1676383045227327000,0.469326904296875,2.9664158821105957,8.655338287353516,3.141192674636841
1676383045237325300,0.4793251953125,3.6942532062530518,8.909123420715332,2.873042106628418
1676383045247324000,0.489323974609375,3.955221176147461,9.000102996826172,3.19865345954895
1676383045257322500,0.499322509765625,3.7229835987091064,8.880393028259277,4.027047157287598
1676383045267322400,0.509322265625,3.485957622528076,8.389581680297852,4.3622355461120605
1676383045277322200,0.519322265625,3.7421371936798096,7.874828815460205,3.88818359375
1676383045287322400,0.529322265625,4.153939723968506,7.501333236694336,3.361459255218506
1676383045297322200,0.539322265625,4.757278919219971,7.419930458068848,2.940079689025879
1676383045307322400,0.549322265625,5.030517101287842,7.690474987030029,2.978386878967285
1676383045317322200,0.559322265625,5.186140060424805,7.965808391571045,3.318363666534424
1676383045327322000,0.569322021484375,5.262754440307617,8.265083312988281,3.44765043258667
1676383045337322200,0.579322265625,5.305850028991699,8.298602104187012,3.375824451446533
1676383045347322000,0.589322021484375,4.7836151123046875,8.43746566772461,3.6846764087677
1676383045357322200,0.599322265625,4.462791919708252,8.478167533874512,4.1180267333984375
1676383045367322000,0.609322021484375,3.912125587463379,8.260294914245605,4.376600742340088
1676383045377322200,0.619322265625,3.428496837615967,8.305785179138184,4.505887508392334
1676383045387322000,0.629322021484375,3.3231520652770996,8.399158477783203,4.5154643058776855
1676383045397322200,0.639322265625,3.404554843902588,8.55717658996582,4.228160381317139
1676383045407322000,0.649322021484375,3.667917013168335,8.700828552246094,3.821146011352539
1676383045417322200,0.659322265625,3.7660791873931885,8.842085838317871,3.1675288677215576
1676383045427322000,0.669322021484375,3.773261785507202,8.837297439575195,2.6192567348480225
1676383045437322200,0.679322265625,3.9169139862060547,8.722375869750977,2.585737943649292
1676383045447321900,0.68932177734375,4.273650169372559,8.822932243347168,2.7030537128448486
1676383045457322800,0.69932275390625,4.553771495819092,8.815750122070312,2.765302896499634
1676383045467323600,0.70932373046875,4.680664539337158,8.784625053405762,2.6144683361053467
1676383045477324500,0.719324462890625,4.821922302246094,8.5811185836792,2.8107926845550537
1676383045487325400,0.729325439453125,4.759673118591309,8.394370079040527,3.442862033843994
1676383045497326300,0.739326416015625,4.189853191375732,8.336909294128418,3.9049429893493652
1676383045507327500,0.749327392578125,2.853888511657715,8.444648742675781,4.3622355461120605
1676383045517328100,0.759328125,1.7286136150360107,8.676886558532715,5.222053050994873
1676383045527329300,0.769329345703125,1.5873557329177856,8.439860343933105,5.401618480682373
1676383045537330200,0.779330078125,2.0590133666992188,8.885181427001953,5.360917091369629
1676383045547331000,0.7893310546875,2.537853717803955,9.239523887634277,5.272331237792969
1676383045557332000,0.79933203125,2.846705913543701,9.038411140441895,5.143044471740723
1676383045567331800,0.809331787109375,3.179499864578247,8.478167533874512,5.131073474884033
1676383045577332000,0.81933203125,3.4979286193847656,7.9083476066589355,5.1693806648254395
1676383045587331800,0.829331787109375,3.646369218826294,7.616254806518555,5.140650272369385
1676383045597332000,0.83933203125,3.936067581176758,7.5994954109191895,5.116708278656006
1676383045607331800,0.849331787109375,4.235342979431152,7.8867998123168945,4.910807132720947
1676383045617332000,0.85933203125,4.55616569519043,8.360851287841797,4.551377296447754
1676383045627331800,0.869331787109375,4.886565685272217,8.300996780395508,4.23773717880249
1676383045637332000,0.87933203125,5.183745861053467,7.999327182769775,3.883395195007324
1676383045647331000,0.8893310546875,4.8602294921875,7.652167797088623,3.5266590118408203
1676383045657331000,0.8993310546875,3.7421371936798096,7.328950881958008,3.974374771118164
1676383045667331000,0.9093310546875,3.155557870864868,7.944260597229004,4.994604110717773
1676383045677331000,0.9193310546875,2.9233202934265137,8.89954662322998,5.672163009643555
1676383045687331000,0.9293310546875,2.583343744277954,9.502885818481445,5.842151641845703
1676383045697331000,0.9393310546875,2.3367409706115723,9.34965705871582,5.5021748542785645
1676383045707331000,0.9493310546875,2.628833532333374,9.253889083862305,5.095160484313965
1676383045717331000,0.9593310546875,3.0765492916107178,9.234735488891602,4.855441093444824
1676383045727331000,0.9693310546875,3.490746021270752,9.138967514038086,4.7836151123046875
1676383045737331000,0.9793310546875,3.801992416381836,8.858845710754395,4.9706621170043945
1676383045747331800,0.989331787109375,3.8283286094665527,8.813355445861816,5.119102478027344
1676383045757331700,0.999331787109375,3.56017804145813,8.327332496643066,5.03291130065918
1676383045767331800,1.009331787109375,2.894589900970459,8.114249229431152,4.716577529907227
1676383045777331700,1.019331787109375,2.5761611461639404,8.176498413085938,4.5154643058776855
1676383045787331800,1.029331787109375,2.540247917175293,8.624214172363281,4.220977783203125
1676383045797331700,1.039331787109375,2.145204782485962,8.672098159790039,4.043806552886963
1676383045807331800,1.049331787109375,1.3910311460494995,8.846874237060547,4.170699596405029
1676383045817332000,1.05933203125,0.4644751250743866,8.818143844604492,4.620809078216553
1676383045827331800,1.069331787109375,-0.19632454216480255,8.70801067352295,5.104737281799316
1676383045837331700,1.079331787109375,-0.6440402865409851,8.64815616607666,5.55245304107666
1676383045847330800,1.089330810546875,-1.072602391242981,8.444648742675781,5.937919616699219
1676383045857331000,1.0993310546875,-1.2330138683319092,8.406341552734375,6.1414265632629395
1676383045867331000,1.1093310546875,-1.094150185585022,8.403946876525879,6.2491655349731445
1676383045877331000,1.1193310546875,-0.7924807667732239,8.533234596252441,6.282684326171875
1676383045887331000,1.1293310546875,-0.3471592366695404,8.514080047607422,6.155791759490967
1676383045897331000,1.1393310546875,-0.002394201699644327,8.368034362792969,5.679345607757568
1676383045907331000,1.1493310546875,-0.021547814831137657,8.236352920532227,5.119102478027344
1676383045917331000,1.1593310546875,-0.26096799969673157,8.351274490356445,4.838681697845459
1676383045927331000,1.1693310546875,-0.5051765441894531,8.80856704711914,5.097554683685303
1676383045937331000,1.1793310546875,-0.7805097699165344,8.729558944702148,5.377676486968994
1676383045947331800,1.189331787109375,-1.0462661981582642,8.23156452178955,5.736806392669678
1676383045957331700,1.199331787109375,-0.8930372595787048,7.783848762512207,6.191704750061035
1676383045967331800,1.209331787109375,-0.6272808313369751,7.0895304679870605,6.634632110595703
1676383045977332000,1.21933203125,-0.6991068720817566,6.565200328826904,6.943484306335449
1676383045987331800,1.229331787109375,-0.871489405632019,6.799831867218018,7.1350202560424805
1676383045997332000,1.23933203125,-1.1037269830703735,7.036858081817627,6.998550891876221
1676383046007331800,1.249331787109375,-1.2952631711959839,7.604283809661865,6.4502787590026855
1676383046017332000,1.25933203125,-1.0319008827209473,7.71202278137207,5.933131217956543
1676383046027331800,1.269331787109375,-0.5315127968788147,7.714416980743408,5.404012680053711
1676383046037331700,1.279331787109375,0.004788403399288654,7.472602844238281,4.891354084014893
1676383046047331000,1.2893310546875,0.36152446269989014,7.726387977600098,4.410119533538818
1676383046057331000,1.2993310546875,-0.002394201699644327,7.826944828033447,4.110844135284424
1676383046067331000,1.3093310546875,-0.8643068075180054,7.735964775085449,4.309563159942627
1676383046077331000,1.3193310546875,-1.9249382019042969,8.475772857666016,4.438849925994873
1676383046087331000,1.3293310546875,-1.968033790588379,8.360851287841797,4.489128112792969
1676383046097331000,1.3393310546875,-2.0829553604125977,7.659350395202637,4.323928356170654
1676383046107331000,1.3493310546875,-2.408566951751709,7.63301420211792,4.252102375030518
1676383046117331000,1.3593310546875,-2.911349296569824,7.783848762512207,4.32871675491333
1676383046127331000,1.3693310546875,-3.9911341667175293,7.149385452270508,4.367023944854736
1676383046137331000,1.3793310546875,-5.03291130065918,6.768707275390625,4.086902141571045
1676383046147331000,1.3893310546875,-5.842151641845703,6.84053373336792,3.756502389907837
1676383046157330200,1.399330078125,-6.44549036026001,7.194875240325928,3.44765043258667
1676383046167329300,1.409329345703125,-6.622661113739014,7.1134724617004395,3.464409828186035
1676383046177328400,1.419328369140625,-6.44549036026001,6.737582683563232,3.5170822143554688
1676383046187327500,1.429327392578125,-5.86848783493042,7.103895664215088,3.399766445159912
1676383046197326300,1.439326416015625,-5.538087844848633,6.854898929595947,3.114856481552124
1676383046207325400,1.449325439453125,-5.358522891998291,6.763918876647949,3.1220390796661377
1676383046217324500,1.459324462890625,-5.5452704429626465,6.84053373336792,3.294421434402466
1676383046227324000,1.469323974609375,-5.91397762298584,6.526893138885498,3.35667085647583
1676383046237322800,1.47932275390625,-6.028899192810059,6.550835132598877,3.1004912853240967
1676383046247322000,1.489322021484375,-6.972214698791504,6.380846977233887,2.9017724990844727
1676383046260113200,1.502113037109375,-7.893982410430908,7.290643215179443,2.851494312286377
1676383046270112300,1.5121123046875,-8.382399559020996,7.5994954109191895,2.8371291160583496
1676383046280111400,1.522111328125,-8.858845710754395,7.19248104095459,2.875436305999756
1676383046290110500,1.5321103515625,-8.293813705444336,7.668927192687988,2.3726539611816406
1676383046300109600,1.542109619140625,-7.6425909996032715,7.230788230895996,1.7812861204147339
1676383046310108700,1.552108642578125,-7.733570575714111,6.222829341888428,0.6177040338516235
1676383046320108000,1.56210791015625,-7.22599983215332,6.416759967803955,-0.6488286852836609
1676383046330108000,1.57210791015625,-6.555623531341553,6.948272705078125,-0.6416460275650024
1676383046340108000,1.58210791015625,-5.528511047363281,6.96503210067749,0.6368576288223267
1676383046350109000,1.59210888671875,-5.418377876281738,6.907571315765381,1.7956513166427612
1676383046360108800,1.60210888671875,-5.638644218444824,6.622661113739014,2.607285737991333
1676383046370109000,1.61210888671875,-5.990592002868652,6.481403350830078,3.112462282180786
1676383046380108800,1.62210888671875,-6.064812183380127,6.366481781005859,2.6791117191314697
1676383046390109000,1.63210888671875,-6.0504469871521,6.610690116882324,1.9704279899597168
1676383046400108800,1.64210888671875,-6.56998872756958,7.032069683074951,1.4053963422775269
1676383046410108700,1.652108642578125,-7.216423034667969,6.701669692993164,1.0845733880996704
1676383046420108800,1.66210888671875,-7.1805100440979,6.313809394836426,0.8427590131759644
1676383046430109000,1.67210888671875,-6.70645809173584,6.134243965148926,0.6655880808830261
1676383046440108800,1.68210888671875,-6.397606372833252,5.468656063079834,0.5123591423034668
1676383046450109000,1.69210888671875,-6.665756702423096,5.4782328605651855,0.0933738648891449
1676383046460109800,1.70210986328125,-7.987356185913086,6.201281547546387,-0.8834604024887085
1676383046470110700,1.71211083984375,-8.731952667236328,5.887641429901123,-1.6831238269805908
1676383046480111400,1.722111328125,-8.334515571594238,6.457461357116699,-1.968033790588379
1676383046490112300,1.7321123046875,-7.946654796600342,6.304232120513916,-1.4867992401123047
1676383046500113200,1.742113037109375,-7.805397033691406,5.933131217956543,-0.6631938815116882
1676383046510114000,1.752114013671875,-7.798214435577393,5.935525417327881,0.0694318488240242
1676383046520115000,1.762114990234375,-8.147768020629883,6.148609161376953,0.8523358106613159
1676383046530115800,1.77211572265625,-8.528446197509766,6.194098949432373,1.139639973640442
1676383046540116700,1.78211669921875,-8.32254409790039,6.060023784637451,1.0127472877502441
1676383046550117600,1.79211767578125,-7.570765018463135,5.667374610900879,0.42377370595932007
1676383046560118500,1.802118408203125,-6.852504730224609,5.437531471252441,-0.14844051003456116
1676383046570119400,1.812119384765625,-6.340145587921143,5.607519626617432,-0.646434485912323
1676383046580120300,1.822120361328125,-6.237194538116455,5.705681800842285,-0.9672574996948242
1676383046590121200,1.832121337890625,-6.629843711853027,5.8349690437316895,-1.0797849893569946
1676383046600122000,1.8421220703125,-7.431901454925537,5.997774600982666,-1.41257905960083
1676383046610123000,1.852123046875,-8.008903503417969,5.882853031158447,-1.1540051698684692
1676383046620123600,1.86212353515625,-8.566753387451172,5.253177642822266,-0.9074024558067322
1676383046630123800,1.872123779296875,-9.31613826751709,5.253177642822266,-0.6799532771110535
1676383046640123600,1.88212353515625,-10.1660795211792,5.159803867340088,-0.42377370595932007
1676383046650122800,1.892122802734375,-10.513238906860352,5.557241439819336,-0.45250412821769714
1676383046660123000,1.902122802734375,-10.297760963439941,5.68892240524292,-0.6320692300796509
1676383046670122800,1.912122802734375,-9.773430824279785,5.494992256164551,-0.6943184733390808
1676383046680123000,1.922122802734375,-9.201216697692871,5.406406879425049,-0.7206547260284424
1676383046690122800,1.932122802734375,-8.655338287353516,5.629067420959473,-0.6320692300796509
1676383046700123000,1.942122802734375,-8.360851287841797,5.957073211669922,-0.40222588181495667
1676383046710122800,1.952122802734375,-8.147768020629883,6.0312933921813965,-0.009576806798577309
1676383046720123000,1.962122802734375,-7.984961986541748,6.122272968292236,0.304063618183136
1676383046730122800,1.972122802734375,-7.8437042236328125,5.839757442474365,0.6320692300796509
1676383046740122600,1.98212255859375,-7.539640426635742,5.712864398956299,0.6488286852836609
1676383046750123500,1.99212353515625,-7.261912822723389,5.806238174438477,0.44771572947502136
1676383046760123600,2.00212353515625,-7.168539047241211,5.873276233673096,0.19632454216480255
1676383046770123500,2.01212353515625,-7.546823024749756,6.210858345031738,-0.019153613597154617
1676383046780123600,2.02212353515625,-7.479785442352295,6.196493148803711,0.12689268589019775
1676383046790123500,2.03212353515625,-7.5540056228637695,6.048052787780762,0.20350714027881622
1676383046800123600,2.04212353515625,-7.427113056182861,5.909189224243164,0.13407529890537262
1676383046810123300,2.052123291015625,-7.118260860443115,5.583577632904053,0.10534487664699554
1676383046820123100,2.062123046875,-6.93151330947876,5.787084579467773,-0.019153613597154617
1676383046830123300,2.072123291015625,-6.795043468475342,6.0743889808654785,-0.10773907601833344
1676383046840123100,2.082123046875,-6.895600318908691,6.026504993438721,-0.1149216815829277
1676383046850122500,2.09212255859375,-7.041646480560303,5.94749641418457,0.028730420395731926
1676383046860122400,2.102122314453125,-7.082347869873047,5.535693645477295,0.3471592366695404
1676383046870122500,2.11212255859375,-7.194875240325928,5.310638427734375,0.5913678407669067
1676383046880122400,2.122122314453125,-7.27148962020874,5.2771196365356445,0.7134721279144287
1676383046890122200,2.132122314453125,-7.269095420837402,5.387253284454346,0.5913678407669067
1676383046900122400,2.142122314453125,-7.434295654296875,5.696105003356934,0.22744916379451752
1676383046910122200,2.152122314453125,-7.889194011688232,5.772719383239746,-0.11013327538967133
1676383046920122400,2.162122314453125,-8.183680534362793,5.521328449249268,-0.38546648621559143
1676383046930122200,2.172122314453125,-8.74152946472168,5.511751651763916,-0.4189853072166443
1676383046940122400,2.182122314453125,-9.019257545471191,5.394435882568359,-0.5722141861915588
1676383046950123300,2.192123291015625,-8.88757610321045,5.159803867340088,-0.31603461503982544
1676383046960123100,2.202123046875,-8.691251754760742,5.126285076141357,0.3280056416988373
1676383046970123300,2.212123291015625,-8.399158477783203,5.32739782333374,0.5051765441894531
1676383046980123100,2.222123046875,-8.044816970825195,5.375282287597656,0.49799394607543945
1676383046990123300,2.232123291015625,-7.649773597717285,5.356128692626953,0.4572925269603729
1676383047000123100,2.242123046875,-7.424718856811523,5.119102478027344,0.3280056416988373
1676383047010123300,2.252123291015625,-7.395988464355469,5.052064895629883,0.07422025501728058
1676383047020123100,2.262123046875,-7.647379398345947,5.245995044708252,-0.10295066982507706
1676383047030123300,2.272123291015625,-8.03763484954834,5.107131481170654,-0.12689268589019775
1676383047040123100,2.282123046875,-8.583512306213379,5.121496677398682,-0.028730420395731926
1676383047050122200,2.292122314453125,-8.83250904083252,5.198111057281494,-0.038307227194309235
1676383047060122400,2.302122314453125,-8.875604629516602,5.076006889343262,0.031124621629714966
1676383047070122200,2.312122314453125,-8.894758224487305,5.025728702545166,-0.011971008032560349
1676383047080122400,2.322122314453125,-9.143755912780762,5.121496677398682,-0.17238251864910126
1676383047090122500,2.33212255859375,-9.433453559875488,5.087977886199951,-0.22744916379451752
1676383047100122400,2.342122314453125,-9.380781173706055,5.047276496887207,-0.14604631066322327
1676383047110122800,2.352122802734375,-9.306561470031738,4.862623691558838,0.08858546614646912
1676383047120122600,2.36212255859375,-9.126996040344238,4.884171485900879,0.3016694188117981
1676383047130122800,2.372122802734375,-8.861239433288574,5.025728702545166,0.28969839215278625
1676383047140122600,2.38212255859375,-8.497321128845215,4.982633113861084,0.19871874153614044
1676383047150123500,2.39212353515625,-8.303390502929688,5.171774864196777,0.019153613597154617
1676383047160123600,2.40212353515625,-8.296208381652832,5.171774864196777,-0.07900865375995636
1676383047170123500,2.41212353515625,-8.59308910369873,5.013757705688477,-0.23942017555236816
1676383047180123600,2.42212353515625,-8.748712539672852,5.068824291229248,-0.4357447028160095
1676383047190123500,2.43212353515625,-8.767866134643555,5.0161519050598145,-0.5913678407669067
1676383047200123600,2.44212353515625,-8.710405349731445,5.068824291229248,-0.6440402865409851
1676383047210123500,2.45212353515625,-8.538022994995117,5.116708278656006,-0.6224924325942993
1676383047220123600,2.46212353515625,-8.37761116027832,5.083189487457275,-0.5363011956214905
1676383047230123500,2.47212353515625,-8.272266387939453,5.126285076141357,-0.26815059781074524
1676383047240123600,2.48212353515625,-8.169315338134766,5.0807952880859375,-0.10534487664699554
1676383047250122800,2.492122802734375,-8.202834129333496,5.076006889343262,-0.13407529890537262
1676383047260122600,2.50212255859375,-8.298602104187012,5.02094030380249,-0.19871874153614044
1676383047270122800,2.512122802734375,-8.509291648864746,4.831499099731445,-0.2753331959247589
1676383047280122600,2.52212255859375,-8.52365779876709,5.085583686828613,-0.49559974670410156
1676383047290122800,2.532122802734375,-8.571541786193848,5.219658851623535,-0.7350199222564697
1676383047300122600,2.54212255859375,-8.540416717529297,5.226841449737549,-0.9169792532920837
1676383047310122800,2.552122802734375,-8.324938774108887,5.188534259796143,-0.8331822156906128
1676383047320122600,2.56212255859375,-8.044816970825195,5.198111057281494,-0.608127236366272
1676383047330122800,2.572122802734375,-7.7287821769714355,5.056853294372559,-0.26815059781074524
1676383047340122600,2.58212255859375,-7.922712802886963,4.879383087158203,-0.043095629662275314
1676383047350123500,2.59212353515625,-8.308178901672363,4.838681697845459,0.0694318488240242
1676383047360123600,2.60212353515625,-8.509291648864746,4.903624534606934,0.07661445438861847
1676383047370123500,2.61212353515625,-8.487744331359863,4.788403511047363,0.035913024097681046
1676383047380123600,2.62212353515625,-8.360851287841797,4.807557106018066,-0.031124621629714966
1676383047390123500,2.63212353515625,-8.28663158416748,4.874594688415527,-0.090979665517807
1676383047400123600,2.64212353515625,-8.229170799255371,4.707000732421875,-0.22026655077934265
1676383047410123500,2.65212353515625,-8.425495147705078,4.747702121734619,-0.4357447028160095
1676383047420123600,2.66212353515625,-8.569147109985352,4.766855716705322,-0.5027823448181152
1676383047430123500,2.67212353515625,-8.624214172363281,4.60165548324585,-0.4644751250743866
1676383047440123600,2.68212353515625,-8.631396293640137,4.742913722991943,-0.43095630407333374
1676383047450122800,2.692122802734375,-8.660126686096191,4.754884719848633,-0.43335050344467163
1676383047460122600,2.70212255859375,-8.612242698669434,4.752490520477295,-0.4429273009300232
1676383047470122800,2.712122802734375,-8.43507194519043,4.802768707275391,-0.5315127968788147
1676383047480122600,2.72212255859375,-8.171710014343262,4.69024133682251,-0.5506663918495178
1676383047490122800,2.732122802734375,-8.116642951965332,4.764461517333984,-0.6703764796257019
1676383047500122600,2.74212255859375,-8.049605369567871,4.819528102874756,-0.7829039692878723
1676383047510122800,2.752122802734375,-8.102277755737305,4.704606533050537,-0.7613561153411865
1676383047520122600,2.76212255859375,-8.169315338134766,4.81473970413208,-0.6392518281936646
1676383047530122800,2.772122802734375,-8.13100814819336,4.841075897216797,-0.49559974670410156
1676383047540122600,2.78212255859375,-8.080730438232422,4.881777286529541,-0.37828385829925537
1676383047550123500,2.79212353515625,-7.984961986541748,4.888959884643555,-0.31124621629714966
1676383047560123400,2.802123291015625,-7.764695167541504,4.855441093444824,-0.19153612852096558
1676383047570123500,2.81212353515625,-7.66653299331665,4.759673118591309,-0.06703764945268631
1676383047580123400,2.822123291015625,-7.7742719650268555,4.611232280731201,-0.040701430290937424
1676383047590123500,2.83212353515625,-7.915530204772949,4.6471452713012695,-0.05267243832349777
1676383047600123600,2.84212353515625,-8.080730438232422,4.67827033996582,-0.12210428714752197
1676383047610123500,2.85212353515625,-8.293813705444336,4.807557106018066,-0.2106897532939911
1676383047620123600,2.86212353515625,-8.585906982421875,4.809951305389404,-0.28969839215278625
1676383047630123500,2.87212353515625,-8.77265453338623,4.819528102874756,-0.3232172429561615
1676383047640123600,2.88212353515625,-8.856451034545898,4.714183330535889,-0.3208230137825012
1676383047650122800,2.892122802734375,-8.818143844604492,4.616020679473877,-0.2322375625371933
1676383047660122600,2.90212255859375,-8.760683059692383,4.551377296447754,-0.08619125932455063
1676383047670122800,2.912122802734375,-8.662521362304688,4.613626480102539,-0.22266076505184174
1676383047680122600,2.92212255859375,-8.605060577392578,4.6734819412231445,-0.37828385829925537
1676383047690122800,2.932122802734375,-8.540416717529297,4.69024133682251,-0.43335050344467163
1676383047700122600,2.94212255859375,-8.516474723815918,4.747702121734619,-0.43335050344467163
1676383047710122800,2.952122802734375,-8.566753387451172,4.774038314819336,-0.38307225704193115
1676383047720122600,2.96212255859375,-8.61463737487793,4.7620673179626465,-0.31364041566848755
1676383047730122800,2.972122802734375,-8.674491882324219,4.668693542480469,-0.21308395266532898
1676383047740122600,2.98212255859375,-8.696040153503418,4.663905143737793,-0.0933738648891449
1676383047750123500,2.99212353515625,-8.68406867980957,4.592078685760498,-0.033518824726343155
1676383047760123600,3.00212353515625,-8.7391357421875,4.596867084503174,-0.026336219161748886
1676383047770123500,3.01212353515625,-8.818143844604492,4.642356872558594,0.009576806798577309
1676383047780123600,3.02212353515625,-8.877999305725098,4.630385875701904,0.05985504388809204
1676383047790123500,3.03212353515625,-8.901941299438477,4.6255974769592285,0.10773907601833344
1676383047800123600,3.04212353515625,-8.909123420715332,4.6471452713012695,0.08379705995321274
1676383047810123500,3.05212353515625,-8.80856704711914,4.565742492675781,0.009576806798577309
1676383047820123600,3.06212353515625,-8.676886558532715,4.55616569519043,-0.14604631066322327
1676383047830123500,3.07212353515625,-8.698433876037598,4.484339714050293,-0.3423708379268646
1676383047840123600,3.08212353515625,-8.767866134643555,4.563348293304443,-0.5147533416748047
1676383047850122800,3.092122802734375,-8.794201850891113,4.651933670043945,-0.5674257874488831
1676383047860123000,3.102122802734375,-8.789413452148438,4.63517427444458,-0.4381389021873474
1676383047870122800,3.112122802734375,-8.777442932128906,4.63517427444458,-0.2777273952960968
1676383047880123000,3.122122802734375,-8.79659652709961,4.6255974769592285,-0.10534487664699554
1676383047890122800,3.132122802734375,-8.698433876037598,4.525041103363037,0.0694318488240242
1676383047900122600,3.14212255859375,-8.595483779907227,4.568136692047119,0.09816227108240128
1676383047910122800,3.152122802734375,-8.573935508728027,4.594472885131836,0.07661445438861847
1676383047920122600,3.16212255859375,-8.569147109985352,4.58968448638916,0.011971008032560349
1676383047930122800,3.172122802734375,-8.629002571105957,4.654327869415283,-0.14844051003456116
1676383047940122600,3.18212255859375,-8.688857078552246,4.697423934936523,-0.3016694188117981
1676383047950123500,3.19212353515625,-8.5811185836792,4.699818134307861,-0.3687070608139038
1676383047960123600,3.20212353515625,-8.37761116027832,4.623203277587891,-0.3471592366695404
1676383047970123500,3.21212353515625,-8.358457565307617,4.5154643058776855,-0.3208230137825012
1676383047980123600,3.22212353515625,-8.387187957763672,4.671087741851807,-0.40701428055763245
1676383047990123500,3.23212353515625,-8.34409236907959,4.6255974769592285,-0.4357447028160095
1676383048000123600,3.24212353515625,-8.360851287841797,4.63517427444458,-0.40701428055763245
1676383048010123500,3.25212353515625,-8.41112995147705,4.649539470672607,-0.395043283700943
1676383048020123600,3.26212353515625,-8.633790969848633,4.666299343109131,-0.3902548849582672
1676383048030123500,3.27212353515625,-8.782231330871582,4.632780075073242,-0.3471592366695404
1676383048040123600,3.28212353515625,-8.791808128356934,4.568136692047119,-0.26336219906806946
1676383048050122800,3.292122802734375,-8.834903717041016,4.570530891418457,-0.2537853717803955
1676383048060122600,3.30212255859375,-8.937853813171387,4.577713489532471,-0.19632454216480255
1676383048070122800,3.312122802734375,-8.961795806884766,4.5825018882751465,-0.20111294090747833
1676383048080122600,3.32212255859375,-8.925883293151855,4.623203277587891,-0.19153612852096558
1676383048090122800,3.332122802734375,-8.782231330871582,4.6950297355651855,-0.10534487664699554
1676383048100123000,3.342122802734375,-8.669703483581543,4.58968448638916,-0.05746084079146385
1676383048110122500,3.35212255859375,-8.607454299926758,4.572925090789795,-0.011971008032560349
1676383048120122400,3.362122314453125,-8.552388191223145,4.572925090789795,-0.0933738648891449
1676383048130122200,3.372122314453125,-8.561964988708496,4.558559894561768,-0.28969839215278625
1676383048140122400,3.382122314453125,-8.643367767333984,4.649539470672607,-0.49320554733276367
1676383048150123300,3.392123291015625,-8.794201850891113,4.620809078216553,-0.586579442024231
1676383048160123100,3.402123046875,-8.968978881835938,4.675876140594482,-0.6919242739677429
1676383048170123300,3.412123291015625,-9.071929931640625,4.7189717292785645,-0.6272808313369751
1676383048180123100,3.422123046875,-9.126996040344238,4.697423934936523,-0.49799394607543945
1676383048190123300,3.432123291015625,-9.093477249145508,4.675876140594482,-0.16759411990642548
1676383048200123100,3.442123046875,-8.978555679321289,4.594472885131836,0.15801730751991272
1676383048210123000,3.452123046875,-8.825326919555664,4.649539470672607,0.3064578175544739
1676383048220123000,3.462122802734375,-8.727164268493652,4.656722068786621,0.38546648621559143
1676383048230123000,3.472123046875,-8.633790969848633,4.592078685760498,0.395043283700943
1676383048240123000,3.482122802734375,-8.463802337646484,4.613626480102539,0.33039984107017517
1676383048250122000,3.4921220703125,-8.329727172851562,4.63517427444458,0.24899697303771973
1676383048260122000,3.5021220703125,-8.308178901672363,4.616020679473877,0.19393034279346466
1676383048270122000,3.5121220703125,-8.370428085327148,4.642356872558594,0.06464344263076782
1676383048280122000,3.5221220703125,-8.442254066467285,4.675876140594482,0.026336219161748886
1676383048290122000,3.5321220703125,-8.597877502441406,4.6471452713012695,0
1676383048300122000,3.5421220703125,-8.875604629516602,4.654327869415283,-0.023942016065120697
1676383048310122000,3.5521220703125,-9.119813919067383,4.707000732421875,-0.040701430290937424
1676383048320122000,3.5621220703125,-9.13417911529541,4.702212333679199,-0.011971008032560349
1676383048330122000,3.5721220703125,-9.002497673034668,4.656722068786621,0.028730420395731926
1676383048340122000,3.5821220703125,-8.86602783203125,4.711789131164551,0.014365210197865963
1676383048350123000,3.592123046875,-8.64815616607666,4.728548526763916,-0.002394201699644327
1676383048360123000,3.602122802734375,-8.41352367401123,4.707000732421875,0.028730420395731926
1676383048370123000,3.612123046875,-8.202834129333496,4.721365928649902,0.06703764945268631
1676383048380123000,3.622122802734375,-8.150161743164062,4.692635536193848,0.021547814831137657
1676383048390123000,3.632123046875,-8.169315338134766,4.738125324249268,-0.0071826050989329815
1676383048400123000,3.642122802734375,-8.332120895385742,4.7189717292785645,0
1676383048410123300,3.652123291015625,-8.554781913757324,4.668693542480469,0.0071826050989329815
1676383048420123400,3.662123291015625,-8.652944564819336,4.721365928649902,-0.014365210197865963
1676383048430123300,3.672123291015625,-8.657732963562012,4.637568473815918,-0.031124621629714966
1676383048440123400,3.682123291015625,-8.715193748474121,4.692635536193848,-0.090979665517807
1676383048450122500,3.69212255859375,-8.7175874710083,4.707000732421875,0.004788403399288654
1676383048460122400,3.702122314453125,-8.70801067352295,4.692635536193848,-0.004788403399288654
1676383048470122500,3.71212255859375,-8.719982147216797,4.680664539337158,-0.07900865375995636
1676383048480122400,3.722122314453125,-8.763077735900879,4.754884719848633,-0.17477671802043915
1676383048490122500,3.73212255859375,-8.748712539672852,4.659116744995117,-0.20350714027881622
1676383048500122400,3.742122314453125,-8.727164268493652,4.7620673179626465,-0.22266076505184174
1676383048510122800,3.752122802734375,-8.746317863464355,4.692635536193848,-0.17717093229293823
1676383048520122600,3.76212255859375,-8.629002571105957,4.7189717292785645,-0.21547815203666687
1676383048530122800,3.772122802734375,-8.396764755249023,4.7620673179626465,-0.2825157940387726
1676383048540122600,3.78212255859375,-8.147768020629883,4.632780075073242,-0.040701430290937424
1676383048550123500,3.79212353515625,-7.786243438720703,4.69024133682251,0.3016694188117981
1676383048560123600,3.80212353515625,-7.46302604675293,4.888959884643555,0.5123591423034668
1676383048570123500,3.81212353515625,-7.46302604675293,4.944325923919678,0.3902548849582672
1676383048580123600,3.82212353515625,-7.367258071899414,5.128679275512695,-0.14365209639072418
1676383048590123500,3.83212353515625,-6.668150901794434,6.376058578491211,-0.49799394607543945
1676383048600123600,3.84212353515625,-4.97545051574707,5.851728439331055,-0.3663128614425659
1676383048610123500,3.85212353515625,-2.1308395862579346,5.751171588897705,-0.014365210197865963
1676383048620123600,3.86212353515625,-0.15083470940589905,5.011363506317139,-0.05267243832349777
1676383048630123500,3.87212353515625,-0.5530605912208557,4.398148536682129,-0.090979665517807
1676383048640123600,3.88212353515625,-0.6440402865409851,4.575319290161133,-0.06703764945268631
1676383048650122800,3.892122802734375,-0.7134721279144287,5.384859085083008,-0.019153613597154617
1676383048660122600,3.90212255859375,-0.7733271718025208,6.155791759490967,0.07422025501728058
1676383048670122800,3.912122802734375,-0.7781155705451965,6.225223541259766,0.1149216815829277
1676383048680122600,3.92212255859375,-0.7422025203704834,6.105513572692871,0.17477671802043915
1676383048690122800,3.932122802734375,-0.6655880808830261,6.040870189666748,0.20111294090747833
1676383048700122600,3.94212255859375,-0.5746083855628967,6.210858345031738,0.20111294090747833
1676383048710122800,3.952122802734375,-0.4596867263317108,6.711246490478516,0.19632454216480255
1676383048720122600,3.96212255859375,-0.3663128614425659,7.269095420837402,0.16519992053508759
1676383048730122800,3.972122802734375,-0.26575639843940735,7.649773597717285,0.11013327538967133
1676383048740122600,3.98212255859375,-0.20350714027881622,7.946654796600342,0.09576806426048279
1676383048750123500,3.99212353515625,-0.10773907601833344,8.097489356994629,0.021547814831137657
1676383048760123600,4.00212353515625,-0.009576806798577309,8.166921615600586,-0.090979665517807
1676383048770123500,4.01212353515625,0.10055647045373917,8.636184692382812,-0.21547815203666687
1676383048780123600,4.02212353515625,0.2106897532939911,9.344868659973145,-0.3423708379268646
1676383048790123500,4.03212353515625,0.272938996553421,10.022427558898926,-0.5363011956214905
1676383048800123600,4.04212353515625,0.26815059781074524,10.489296913146973,-0.6655880808830261
1676383048810123500,4.05212353515625,0.19871874153614044,10.745476722717285,-0.7781155705451965
1676383048820123600,4.06212353515625,0.1173158809542656,10.889128684997559,-0.8810662031173706
1676383048830123500,4.07212353515625,0.0454898327589035,11.162067413330078,-0.9864110946655273
1676383048840123600,4.08212353515625,-0.06224924325942993,12.055105209350586,-1.1420341730117798
1676383048850122800,4.092122802734375,-0.2082955539226532,12.679991722106934,-1.213860273361206
1676383048860122600,4.10212255859375,-0.3974374830722809,13.063063621520996,-1.2282254695892334
1676383048870122800,4.112122802734375,-0.5817909836769104,13.716680526733398,-1.1755530834197998
1676383048880122600,4.12212255859375,-0.7038952708244324,13.460501670837402,-1.072602391242981
1676383048890122800,4.132122802734375,-0.8092401623725891,13.63527774810791,-0.9600749015808105
1676383048900122600,4.14212255859375,-0.9265560507774353,14.703091621398926,-0.8762778043746948
1676383048910122800,4.152122802734375,-0.9576807022094727,15.000271797180176,-0.7206547260284424
1676383048920122600,4.16212255859375,-0.9792284965515137,14.765640258789062,-0.44532153010368347
1676383048930122800,4.172122802734375,-0.9145850539207458,15.021820068359375,-0.28730419278144836
1676383048940122600,4.18212255859375,-0.7996633648872375,15.153501510620117,-0.07900865375995636
1676383048950123500,4.19212353515625,-0.586579442024231,15.455170631408691,0.047884032130241394
1676383048960123600,4.20212353515625,-0.36152446269989014,15.689802169799805,0.1604115068912506
1676383048970123500,4.21212353515625,-0.181959331035614,15.907674789428711,0.24181437492370605
1676383048980123600,4.22212353515625,0.014365210197865963,16.094423294067383,0.26336219906806946
1676383048990123500,4.23212353515625,0.22266076505184174,16.233285903930664,0.22026655077934265
1676383049000123600,4.24212353515625,0.4165911078453064,16.49664878845215,0.05267243832349777
1676383049010123500,4.25212353515625,0.5434837937355042,16.625934600830078,-0.1149216815829277
1676383049020123600,4.26212353515625,0.569819986820221,17.111957550048828,-0.31842881441116333
1676383049030123500,4.27212353515625,0.5386953949928284,17.06167984008789,-0.5650315880775452
1676383049040123600,4.28212353515625,0.40940847992897034,17.329830169677734,-0.7948749661445618
1676383049050122800,4.292122802734375,0.3232172429561615,17.85416030883789,-1.115697979927063
1676383049060122600,4.30212255859375,0.14365209639072418,18.002601623535156,-1.316810965538025
1676383049070122800,4.312122802734375,-0.1173158809542656,17.959505081176758,-1.4437036514282227
1676383049080122600,4.32212255859375,-0.35913026332855225,18.117523193359375,-1.5921441316604614
1676383049090122800,4.332122802734375,-0.5267243981361389,17.945140838623047,-1.647210717201233
1676383049100122600,4.34212255859375,-0.6584054827690125,18.2085018157959,-1.6927006244659424
1676383049110122800,4.352122802734375,-0.7326257228851318,17.777545928955078,-1.6615760326385498
1676383049120122400,4.362122314453125,-0.7781155705451965,17.497425079345703,-1.4508862495422363
1676383049130122200,4.372122314453125,-0.6823474764823914,17.418415069580078,-1.3263877630233765
1676383049140122400,4.382122314453125,-0.5650315880775452,17.00661277770996,-1.1683704853057861
1676383049150123000,4.392123046875,-0.3495534360408783,16.980276107788086,-1.0247182846069336
1676383049160123100,4.402123046875,-0.1412578970193863,16.764799118041992,-0.8427590131759644
1676383049170123000,4.412123046875,0.05506663769483566,16.072874069213867,-0.6200982332229614
1676383049180123100,4.422123046875,0.31364041566848755,15.572486877441406,-0.4908113479614258
1676383049190123000,4.432123046875,0.5339069962501526,15.579668998718262,-0.40701428055763245
1676383049200123100,4.442123046875,0.730231523513794,15.347431182861328,-0.395043283700943
1676383049210123000,4.452123046875,0.8355764150619507,14.669572830200195,-0.363918662071228
1676383049220123100,4.462123046875,0.8643068075180054,14.444518089294434,-0.3447650372982025
1676383049230123000,4.472123046875,0.8571242094039917,13.915399551391602,-0.42377370595932007
1676383049240123100,4.482123046875,0.8092401623725891,13.465290069580078,-0.45010992884635925
1676383049250122200,4.492122314453125,0.7326257228851318,13.340790748596191,-0.5578489899635315
1676383049260122400,4.502122314453125,0.6033388376235962,13.343185424804688,-0.6871358752250671
1676383049270122200,4.512122314453125,0.44532153010368347,13.132495880126953,-0.8259995579719543
1676383049280122400,4.522122314453125,0.26815059781074524,13.199533462524414,-0.9624691009521484
1676383049290122200,4.532122314453125,0.10773907601833344,12.217910766601562,-0.993593692779541
1676383049300122400,4.542122314453125,-0.0454898327589035,11.415852546691895,-0.9624691009521484
1676383049310122200,4.552122314453125,-0.15801730751991272,11.62414836883545,-1.0965443849563599
1676383049320122400,4.562122314453125,-0.24660277366638184,11.44218921661377,-1.1875240802764893
1676383049330122200,4.572122314453125,-0.2944868206977844,11.248258590698242,-1.2521674633026123
1676383049340122400,4.582122314453125,-0.304063618183136,10.688015937805176,-1.2761094570159912
1676383049350123300,4.592123291015625,-0.31842881441116333,10.168474197387695,-1.1875240802764893
1676383049360123100,4.602123046875,-0.2753331959247589,9.56513500213623,-1.0989385843276978
1676383049370123300,4.612123291015625,-0.2322375625371933,9.22755241394043,-1.0438719987869263
1676383049380123100,4.622123046875,-0.1388636976480484,8.813355445861816,-1.0630255937576294
1676383049390123000,4.632123046875,-0.0454898327589035,8.576330184936523,-1.0534487962722778
1676383049400123100,4.642123046875,0.011971008032560349,8.425495147705078,-1.0749965906143188
1676383049410122200,4.652122314453125,0.10773907601833344,8.305785179138184,-1.0845733880996704
1676383049420122600,4.66212255859375,0.22026655077934265,8.540416717529297,-1.091755986213684
1676383049430122800,4.672122802734375,0.3064578175544739,7.934683799743652,-0.9816226959228516
1676383049440122600,4.68212255859375,0.3734954595565796,7.039252281188965,-0.849941611289978
1676383049450121700,4.692121826171875,0.40701428055763245,6.816591739654541,-0.811634361743927
1676383049460121900,4.702121826171875,0.47644615173339844,6.88602352142334,-0.8092401623725891
1676383049470121700,4.712121826171875,0.507570743560791,6.593930721282959,-0.790086567401886
1676383049480121900,4.722121826171875,0.5602431893348694,6.632237911224365,-0.8355764150619507
1676383049490121700,4.732121826171875,0.5650315880775452,6.323386192321777,-0.8188169598579407
1676383049500121900,4.742121826171875,0.5913678407669067,6.390423774719238,-0.7996633648872375
1676383049510121700,4.752121826171875,0.5674257874488831,6.26592493057251,-0.7709329724311829
1676383049520121900,4.762121826171875,0.5554547905921936,6.088754177093506,-0.7445967197418213
1676383049530121700,4.772121826171875,0.524330198764801,5.782296180725098,-0.7038952708244324
1676383049540121900,4.782121826171875,0.4692635238170624,5.739200592041016,-0.6943184733390808
1676383049550122800,4.792122802734375,0.4381389021873474,5.892429828643799,-0.7326257228851318
1676383049560122600,4.80212255859375,0.42616790533065796,6.086359977722168,-0.790086567401886
1676383049570122800,4.812122802734375,0.38307225704193115,6.340145587921143,-0.8475474119186401
1676383049580122600,4.82212255859375,0.33758243918418884,6.251559734344482,-0.828393816947937
1676383049590122800,4.832122802734375,0.2825157940387726,6.275501728057861,-0.8307880163192749
1676383049600122600,4.84212255859375,0.20350714027881622,6.366481781005859,-0.8619126081466675
1676383049610122800,4.852122802734375,0.13407529890537262,6.529287338256836,-0.8595184087753296
1676383049620122600,4.86212255859375,0.05506663769483566,6.749553680419922,-0.8786720037460327
1676383049630122800,4.872122802734375,-0.016759412363171577,6.78546667098999,-0.8954314589500427
1676383049640122600,4.88212255859375,-0.0694318488240242,7.0033392906188965,-0.9552865028381348
1676383049650121700,4.892121826171875,-0.11971008777618408,7.214028835296631,-1.0223240852355957
1676383049660121900,4.902121826171875,-0.15083470940589905,7.40556526184082,-1.0319008827209473
1676383049670121700,4.912121826171875,-0.16519992053508759,7.700051784515381,-1.072602391242981
1676383049680121900,4.922121826171875,-0.15801730751991272,7.781454563140869,-1.01753568649292
1676383049690121700,4.932121826171875,-0.15801730751991272,7.929895401000977,-1.0342950820922852
1676383049700121900,4.942121826171875,-0.1843535304069519,8.466196060180664,-1.0989385843276978
1676383049710122800,4.952122802734375,-0.16519992053508759,9.040804862976074,-1.139639973640442
1676383049720122600,4.96212255859375,-0.09816227108240128,9.177274703979492,-1.1109095811843872
1676383049730122800,4.972122802734375,-0.021547814831137657,9.270648002624512,-1.1180921792984009
1676383049740122600,4.98212255859375,0.07900865375995636,9.615413665771484,-1.1252747774124146
1676383049750123500,4.99212353515625,0.16998831927776337,10.331279754638672,-1.1324573755264282
1676383049760123400,5.002123291015625,0.2537853717803955,10.333673477172852,-1.070208191871643
1676383049770123500,5.01212353515625,0.33039984107017517,10.613795280456543,-1.01753568649292
1676383049780123600,5.02212353515625,0.44532153010368347,11.083059310913086,-1.0247182846069336
1676383049790123500,5.03212353515625,0.5482721924781799,11.427824020385742,-0.9911994934082031
1676383049800123600,5.04212353515625,0.6488286852836609,11.731887817382812,-0.9816226959228516
1676383049810122800,5.052122802734375,0.7206547260284424,12.067075729370117,-0.9385270476341248
1676383049820122600,5.06212255859375,0.7493851184844971,12.56985855102539,-0.8906430602073669
1676383049830122800,5.072122802734375,0.7374141216278076,12.735057830810547,-0.8451532125473022
1676383049840122600,5.08212255859375,0.6775590777397156,13.134889602661133,-0.8379706144332886
1676383049850122000,5.0921220703125,0.6416460275650024,13.496414184570312,-0.871489405632019
1676383049860121900,5.102121826171875,0.5219359993934631,14.090176582336426,-0.9026140570640564
1676383049870122000,5.1121220703125,0.40701428055763245,14.387057304382324,-0.8834604024887085
1676383049880121900,5.122121826171875,0.21787235140800476,14.8374662399292,-0.9050082564353943
1676383049890121700,5.132121826171875,0.035913024097681046,15.119982719421387,-0.9217676520347595
1676383049900121900,5.142121826171875,-0.12210428714752197,15.438410758972168,-1.0031704902648926
1676383049910121700,5.152121826171875,-0.2537853717803955,15.5126314163208,-1.094150185585022
1676383049920121900,5.162121826171875,-0.3663128614425659,15.907674789428711,-1.137245774269104
1676383049930121700,5.172121826171875,-0.4381389021873474,16.20694923400879,-1.1659762859344482
1676383049940121900,5.182121826171875,-0.4596867263317108,16.580446243286133,-1.216254472732544
1676383049950122800,5.192122802734375,-0.4118026793003082,16.82465362548828,-1.2689268589019775
1676383049960122600,5.20212255859375,-0.2825157940387726,16.87972068786621,-1.3335703611373901
1676383049970122800,5.212122802734375,-0.15322890877723694,17.05449676513672,-1.3862427473068237
1676383049980122600,5.22212255859375,0.021547814831137657,17.337013244628906,-1.357512354850769
1676383049990122800,5.232122802734375,0.21308395266532898,17.432781219482422,-1.3311761617660522
1676383050000122600,5.24212255859375,0.3711012601852417,17.404050827026367,-1.2880805730819702
1676383050010122800,5.252122802734375,0.545877993106842,17.322647094726562,-1.2617442607879639
1676383050020122600,5.26212255859375,0.6655880808830261,17.35616683959961,-1.2282254695892334
1676383050030122800,5.272122802734375,0.7781155705451965,17.10477638244629,-1.0989385843276978
1676383050040122600,5.28212255859375,0.8140285611152649,17.250822067260742,-0.9888052940368652
1676383050050121700,5.292121826171875,0.7948749661445618,17.384897232055664,-0.9361328482627869
1676383050060121900,5.302121826171875,0.706289529800415,16.93718147277832,-0.8355764150619507
1676383050070121700,5.312121826171875,0.6009446382522583,16.80071258544922,-0.7972691655158997
1676383050080121900,5.322121826171875,0.47165772318840027,17.169418334960938,-0.7206547260284424
1676383050090121700,5.332121826171875,0.2801215946674347,16.63311767578125,-0.6320692300796509
1676383050100121900,5.342121826171875,0.11013327538967133,16.587627410888672,-0.6129156351089478
1676383050110122800,5.352122802734375,-0.033518824726343155,16.640300750732422,-0.6200982332229614
1676383050120122600,5.36212255859375,-0.17717093229293823,16.02499008178711,-0.6320692300796509
1676383050130122800,5.372122802734375,-0.22026655077934265,15.567697525024414,-0.6272808313369751
1676383050140122600,5.38212255859375,-0.29209262132644653,15.799935340881348,-0.6751648783683777
1676383050150123500,5.39212353515625,-0.28969839215278625,15.644312858581543,-0.667982280254364
1676383050160123400,5.402123291015625,-0.24899697303771973,14.978724479675293,-0.6560112833976746
1676383050170123500,5.41212353515625,-0.17477671802043915,14.971541404724121,-0.7230489253997803
1676383050180123400,5.422123291015625,-0.047884032130241394,14.643237113952637,-0.7158663272857666
1676383050190123500,5.43212353515625,0.05267243832349777,14.24579906463623,-0.7134721279144287
1676383050200123400,5.442123291015625,0.17238251864910126,13.680768013000488,-0.6775590777397156
1676383050210123500,5.45212353515625,0.2753331959247589,13.702315330505371,-0.6655880808830261
1676383050220123400,5.462123291015625,0.395043283700943,13.05588150024414,-0.6368576288223267
1676383050230123500,5.47212353515625,0.47884035110473633,12.715904235839844,-0.5626373887062073
1676383050240123400,5.482123291015625,0.5147533416748047,12.261006355285645,-0.524330198764801
1676383050250122800,5.492122802734375,0.569819986820221,11.94018268585205,-0.47165772318840027
1676383050260122600,5.50212255859375,0.5506663918495178,11.521198272705078,-0.42377370595932007
1676383050270122500,5.51212255859375,0.5147533416748047,11.090241432189941,-0.35434186458587646
1676383050280122600,5.52212255859375,0.4668693244457245,10.731111526489258,-0.31842881441116333
1676383050290122500,5.53212255859375,0.3998316824436188,10.223540306091309,-0.2585737705230713
1676383050300122600,5.54212255859375,0.33039984107017517,10.003273963928223,-0.2106897532939911
1676383050310122800,5.552122802734375,0.24660277366638184,9.675268173217773,-0.16759411990642548
1676383050320122600,5.56212255859375,0.15801730751991272,9.25867748260498,-0.1149216815829277
1676383050330122800,5.572122802734375,0.05746084079146385,8.782231330871582,-0.06703764945268631
1676383050340122600,5.58212255859375,-0.019153613597154617,8.585906982421875,-0.05746084079146385
1676383050350123500,5.59212353515625,-0.07900865375995636,8.320150375366211,-0.009576806798577309
1676383050360123600,5.60212353515625,-0.15083470940589905,8.214805603027344,0.002394201699644327
1676383050370123500,5.61212353515625,-0.1843535304069519,7.8221564292907715,0.021547814831137657
1676383050380123600,5.62212353515625,-0.2082955539226532,7.2882490158081055,0.026336219161748886
1676383050390123500,5.63212353515625,-0.24660277366638184,7.249941825866699,0.023942016065120697
1676383050400123400,5.642123291015625,-0.24420857429504395,6.9817914962768555,0.038307227194309235
1676383050410123500,5.65212353515625,-0.2513911724090576,6.761524677276611,0.06464344263076782
1676383050420123400,5.662123291015625,-0.23702596127986908,6.579565525054932,0.043095629662275314
1676383050430123500,5.67212353515625,-0.22505496442317963,6.380846977233887,0.06224924325942993
1676383050440123400,5.682123291015625,-0.18914192914962769,6.359299182891846,0.06703764945268631
1676383050450122800,5.692122802734375,-0.16519992053508759,6.203675746917725,0.07422025501728058
1676383050460122600,5.70212255859375,-0.1388636976480484,5.971438407897949,0.05746084079146385
1676383050470122800,5.712122802734375,-0.11971008777618408,5.866093635559082,0.07182604819536209
1676383050480122600,5.72212255859375,-0.08379705995321274,5.911583423614502,0.08379705995321274
1676383050490122800,5.732122802734375,-0.05027823522686958,5.8565168380737305,0.07900865375995636
1676383050500122600,5.74212255859375,-0.033518824726343155,5.909189224243164,0.10295066982507706
1676383050510122800,5.752122802734375,-0.004788403399288654,5.815814971923828,0.12210428714752197
1676383050520122600,5.76212255859375,0.031124621629714966,5.753565788269043,0.12689268589019775
1676383050530122800,5.772122802734375,0.028730420395731926,5.7200469970703125,0.12210428714752197
1676383050540122600,5.78212255859375,0.06224924325942993,5.839757442474365,0.12449848651885986
1676383050550123500,5.79212353515625,0.05746084079146385,5.866093635559082,0.13168109953403473
1676383050560123400,5.802123291015625,0.06464344263076782,6.067206382751465,0.14365209639072418
1676383050570123500,5.81212353515625,0.05027823522686958,6.153397560119629,0.14604631066322327
1676383050580123400,5.822123291015625,0.05506663769483566,6.261136531829834,0.1604115068912506
1676383050590123500,5.83212353515625,0.014365210197865963,6.455067157745361,0.17956513166427612
1676383050600123600,5.84212353515625,-0.009576806798577309,6.584353923797607,0.1628057211637497
1676383050610123500,5.85212353515625,-0.038307227194309235,6.87405252456665,0.14604631066322327
1676383050620123600,5.86212353515625,-0.06464344263076782,7.094318866729736,0.10773907601833344
1676383050630123500,5.87212353515625,-0.12210428714752197,7.316979885101318,0.08379705995321274
1676383050640123600,5.88212353515625,-0.16998831927776337,7.613860607147217,0.05027823522686958
1676383050650122800,5.892122802734375,-0.2059013396501541,7.834127426147461,0.014365210197865963
1676383050660122600,5.90212255859375,-0.26096799969673157,8.16452693939209,-0.043095629662275314
1676383050670122800,5.912122802734375,-0.31603461503982544,8.542811393737793,-0.12210428714752197
1676383050680122600,5.92212255859375,-0.3471592366695404,8.86602783203125,-0.17956513166427612
1676383050690122800,5.932122802734375,-0.38307225704193115,9.308955192565918,-0.2753331959247589
1676383050700122600,5.94212255859375,-0.3902548849582672,9.663297653198242,-0.3711012601852417
1676383050710122800,5.952122802734375,-0.4165911078453064,10.000880241394043,-0.43335050344467163
1676383050720122600,5.96212255859375,-0.4165911078453064,10.371980667114258,-0.5339069962501526
1676383050730122800,5.972122802734375,-0.3998316824436188,10.735899925231934,-0.6105214357376099
1676383050740122600,5.98212255859375,-0.3663128614425659,11.154885292053223,-0.6919242739677429
1676383050750123500,5.99212353515625,-0.31603461503982544,11.50922679901123,-0.7541735172271729
1676383050760123400,6.002123291015625,-0.28969839215278625,12.14129638671875,-0.8355764150619507
1676383050770123500,6.01212353515625,-0.2106897532939911,12.44775390625,-0.8643068075180054
1676383050780123400,6.022123291015625,-0.1843535304069519,12.354379653930664,-0.8307880163192749
1676383050790123500,6.03212353515625,-0.14604631066322327,12.928988456726074,-0.8475474119186401
1676383050800123400,6.042123291015625,-0.0933738648891449,13.417405128479004,-0.8547300100326538
1676383050810123500,6.05212353515625,-0.040701430290937424,13.764564514160156,-0.8523358106613159
1676383050820123400,6.062123291015625,-0.014365210197865963,14.135665893554688,-0.811634361743927
1676383050830123500,6.07212353515625,-0.05027823522686958,14.712967872619629,-0.7469909191131592
1676383050840123600,6.08212353515625,-0.08379705995321274,14.506767272949219,-0.6560112833976746
1676383050850122800,6.092122802734375,-0.17477671802043915,14.542680740356445,-0.5506663918495178
1676383050860122600,6.10212255859375,-0.16759411990642548,15.096040725708008,-0.5267243981361389
1676383050870122800,6.112122802734375,-0.27054479718208313,15.711350440979004,-0.47644615173339844
1676383050880122600,6.12212255859375,-0.31842881441116333,15.550938606262207,-0.45489832758903503
1676383050890122800,6.132122802734375,-0.45010992884635925,15.828665733337402,-0.40701428055763245
1676383050900122600,6.14212255859375,-0.5386953949928284,16.120758056640625,-0.3687070608139038
1676383050910122800,6.152122802734375,-0.5889736413955688,16.321870803833008,-0.3974374830722809
1676383050920122600,6.16212255859375,-0.5793967843055725,16.20694923400879,-0.4692635238170624
1676383050930122800,6.172122802734375,-0.5770025849342346,16.527772903442383,-0.5219359993934631
1676383050940122600,6.18212255859375,-0.586579442024231,16.848596572875977,-0.5985504388809204
1676383050950123500,6.19212353515625,-0.5195417404174805,17.011402130126953,-0.6823474764823914
1676383050960123400,6.202123291015625,-0.45010992884635925,16.915634155273438,-0.7493851184844971
1676383050970123500,6.21212353515625,-0.33039984107017517,16.63311767578125,-0.811634361743927
1676383050980123600,6.22212353515625,-0.23942017555236816,17.37053108215332,-0.9433154463768005
1676383050990123500,6.23212353515625,-0.10055647045373917,17.269975662231445,-1.0199298858642578
1676383051000123600,6.24212353515625,-0.019153613597154617,16.901268005371094,-1.0342950820922852
1676383051010123500,6.25212353515625,0.0694318488240242,16.843807220458984,-1.0678139925003052
1676383051020123600,6.26212353515625,0.12210428714752197,16.99464225769043,-1.0845733880996704
1676383051030123500,6.27212353515625,0.19632454216480255,16.475099563598633,-1.0678139925003052
1676383051040123600,6.28212353515625,0.2322375625371933,16.793529510498047,-1.0965443849563599
1676383051050123000,6.292123046875,0.24660277366638184,16.913238525390625,-1.0845733880996704
1676383051060123000,6.302122802734375,0.1364694982767105,16.001049041748047,-0.9888052940368652
1676383051070123000,6.312123046875,0.047884032130241394,15.778388023376465,-0.8954314589500427
1676383051080123000,6.322122802734375,0.028730420395731926,16.192584991455078,-0.8427590131759644
1676383051090123000,6.332123046875,-0.016759412363171577,15.754446029663086,-0.7924807667732239
1676383051100123100,6.342123046875,-0.1173158809542656,15.313912391662598,-0.730231523513794
1676383051110123000,6.352123046875,-0.22266076505184174,15.064915657043457,-0.6272808313369751
1676383051120123100,6.362123046875,-0.3016694188117981,14.873379707336426,-0.5386953949928284
1676383051130123000,6.372123046875,-0.26815059781074524,14.207491874694824,-0.5003881454467773
1676383051140123000,6.382122802734375,-0.2561795711517334,14.003985404968262,-0.47405192255973816
1676383051150123800,6.392123779296875,-0.22744916379451752,14.082993507385254,-0.4908113479614258
1676383051160124000,6.4021240234375,-0.21308395266532898,13.288118362426758,-0.4429273009300232
1676383051170123800,6.412123779296875,-0.19153612852096558,13.201927185058594,-0.4165911078453064
1676383051180124000,6.4221240234375,-0.06464344263076782,12.907440185546875,-0.4357447028160095
1676383051190123800,6.432123779296875,0.026336219161748886,12.383110046386719,-0.43095630407333374
1676383051200124000,6.4421240234375,0.1173158809542656,11.96173095703125,-0.4644751250743866
1676383051210123800,6.452123779296875,0.22026655077934265,11.81568431854248,-0.49559974670410156
1676383051220124000,6.4621240234375,0.272938996553421,11.50683307647705,-0.5171475410461426
1676383051230123800,6.472123779296875,0.3495534360408783,11.152490615844727,-0.5147533416748047
1676383051240124000,6.4821240234375,0.4165911078453064,10.946589469909668,-0.545877993106842
1676383051250123000,6.492123046875,0.4692635238170624,10.482114791870117,-0.5770025849342346
1676383051260123100,6.502123046875,0.48602294921875,9.931447982788086,-0.5674257874488831
1676383051270123000,6.512123046875,0.47405192255973816,9.574711799621582,-0.5674257874488831
1676383051280123000,6.522122802734375,0.5123591423034668,9.52922248840332,-0.6057330369949341
1676383051290123000,6.532123046875,0.5506663918495178,9.296984672546387,-0.6129156351089478
1676383051300123000,6.542122802734375,0.5482721924781799,8.952219009399414,-0.5722141861915588
1676383051310123000,6.552123046875,0.5003881454467773,8.696040153503418,-0.5793967843055725
1676383051320123000,6.562122802734375,0.4668693244457245,8.454225540161133,-0.5578489899635315
1676383051330123000,6.572123046875,0.43335050344467163,8.052000045776367,-0.5482721924781799
1676383051340123100,6.582123046875,0.35913026332855225,7.6210432052612305,-0.5003881454467773
1676383051350123500,6.59212353515625,0.3471592366695404,7.49654483795166,-0.5027823448181152
1676383051360123600,6.60212353515625,0.3663128614425659,7.984961986541748,-0.5123591423034668
1676383051370123500,6.61212353515625,0.33279404044151306,7.5324578285217285,-0.4836287498474121
1676383051380123600,6.62212353515625,0.31364041566848755,6.97700309753418,-0.42616790533065796
1676383051390123500,6.63212353515625,0.24899697303771973,6.876446723937988,-0.3974374830722809
1676383051400123600,6.64212353515625,0.23942017555236816,7.012916088104248,-0.3734954595565796
1676383051410122800,6.652122802734375,0.23942017555236816,6.732794284820557,-0.363918662071228
1676383051420122600,6.66212255859375,0.24660277366638184,6.502951145172119,-0.3447650372982025
1676383051430122800,6.672122802734375,0.2537853717803955,6.4502787590026855,-0.31603461503982544
1676383051440122600,6.68212255859375,0.3016694188117981,6.66096830368042,-0.31124621629714966
1676383051450121700,6.692121826171875,0.3208230137825012,6.591536521911621,-0.30885201692581177
1676383051460121900,6.702121826171875,0.3280056416988373,6.347328186035156,-0.26815059781074524
1676383051470121700,6.712121826171875,0.3471592366695404,6.261136531829834,-0.23702596127986908
1676383051480121900,6.722121826171875,0.35913026332855225,6.402394771575928,-0.21787235140800476
1676383051490121700,6.732121826171875,0.40462008118629456,6.493374347686768,-0.23702596127986908
1676383051500121900,6.742121826171875,0.45010992884635925,6.526893138885498,-0.2346317619085312
1676383051510121700,6.752121826171875,0.5171475410461426,6.584353923797607,-0.24899697303771973
1676383051520121900,6.762121826171875,0.5770025849342346,6.658574104309082,-0.23702596127986908
1676383051530121700,6.772121826171875,0.608127236366272,6.78546667098999,-0.23702596127986908
1676383051540121900,6.782121826171875,0.646434485912323,6.862081527709961,-0.23702596127986908
1676383051550122500,6.79212255859375,0.667982280254364,7.103895664215088,-0.26096799969673157
1676383051560122600,6.80212255859375,0.689530074596405,7.2882490158081055,-0.26096799969673157
1676383051570122500,6.81212255859375,0.7015010714530945,7.4223246574401855,-0.28969839215278625
1676383051580122600,6.82212255859375,0.7350199222564697,7.6210432052612305,-0.33279404044151306
1676383051590122800,6.832122802734375,0.727837324142456,7.810185432434082,-0.3495534360408783
1676383051600122600,6.84212255859375,0.7350199222564697,8.063970565795898,-0.37828385829925537
1676383051610121700,6.852121826171875,0.7230489253997803,8.403946876525879,-0.40222588181495667
1676383051620121900,6.862121826171875,0.6751648783683777,8.672098159790039,-0.43095630407333374
1676383051630121700,6.872121826171875,0.6224924325942993,8.839692115783691,-0.44532153010368347
1676383051640121900,6.882121826171875,0.5889736413955688,9.337685585021973,-0.5003881454467773
1676383051650121700,6.892121826171875,0.524330198764801,9.711181640625,-0.5434837937355042
1676383051660121900,6.902121826171875,0.4381389021873474,9.684844970703125,-0.5386953949928284
1676383051670121700,6.912121826171875,0.38307225704193115,9.931447982788086,-0.5410895943641663
1676383051680121900,6.922121826171875,0.29209262132644653,10.6832275390625,-0.608127236366272
1676383051690121700,6.932121826171875,0.21308395266532898,11.193192481994629,-0.6009446382522583
1676383051700121900,6.942121826171875,0.15322890877723694,11.008838653564453,-0.5913678407669067
1676383051710122800,6.952122802734375,0.10534487664699554,11.408670425415039,-0.608127236366272
1676383051720122600,6.96212255859375,0.10295066982507706,11.980884552001953,-0.6224924325942993
1676383051730122800,6.972122802734375,0.11252748221158981,12.10777759552002,-0.5961562395095825
1676383051740122600,6.98212255859375,0.12928688526153564,12.409446716308594,-0.5602431893348694
1676383051750123500,6.99212353515625,0.1412578970193863,12.737452507019043,-0.5578489899635315
1676383051760123400,7.002123291015625,0.22744916379451752,13.216292381286621,-0.5554547905921936
1676383051770123500,7.01212353515625,0.31124621629714966,13.407828330993652,-0.545877993106842
1676383051780123400,7.022123291015625,0.40701428055763245,13.546692848205566,-0.524330198764801
1676383051790123500,7.03212353515625,0.5315127968788147,13.733440399169922,-0.49799394607543945
1676383051800123400,7.042123291015625,0.5889736413955688,14.255375862121582,-0.49799394607543945
1676383051810122800,7.052122802734375,0.667982280254364,14.396634101867676,-0.4812345504760742
1676383051820122600,7.06212255859375,0.7422025203704834,14.281712532043457,-0.4884171485900879
1676383051830122800,7.072122802734375,0.7972691655158997,14.820707321166992,-0.5123591423034668
1676383051840122600,7.08212255859375,0.811634361743927,15.033790588378906,-0.5291185975074768
1676383051850122800,7.092122802734375,0.7589619159698486,15.009848594665527,-0.5051765441894531
1676383051860122600,7.10212255859375,0.7206547260284424,15.546150207519531,-0.586579442024231
1676383051870122800,7.112122802734375,0.6224924325942993,15.486294746398926,-0.6200982332229614
1676383051880122600,7.12212255859375,0.5746083855628967,15.69459056854248,-0.629675030708313
1676383051890122800,7.132122802734375,0.4189853072166443,16.056114196777344,-0.6919242739677429
1676383051900122600,7.14212255859375,0.31603461503982544,15.929222106933594,-0.7326257228851318
1676383051910123500,7.15212353515625,0.20350714027881622,16.07526969909668,-0.7445967197418213
1676383051920123400,7.162123291015625,0.08619125932455063,16.21413230895996,-0.7852981686592102
1676383051930123500,7.17212353515625,0.021547814831137657,16.171037673950195,-0.8403648138046265
1676383051940123400,7.182123291015625,-0.07661445438861847,16.065692901611328,-0.7924807667732239
1676383051950123500,7.19212353515625,-0.08858546614646912,16.293140411376953,-0.8331822156906128
1676383051960123400,7.202123291015625,-0.10295066982507706,16.044143676757812,-0.7805097699165344
1676383051970123500,7.21212353515625,-0.040701430290937424,16.115970611572266,-0.7829039692878723
1676383051980123600,7.22212353515625,0.026336219161748886,15.938798904418945,-0.7541735172271729
1676383051990123500,7.23212353515625,0.07900865375995636,15.771204948425293,-0.7182605266571045
1676383052000123600,7.24212353515625,0.16759411990642548,15.790358543395996,-0.6799532771110535
1676383052010123500,7.25212353515625,0.22505496442317963,15.687408447265625,-0.6344634294509888
1676383052020123600,7.26212353515625,0.3423708379268646,15.242086410522461,-0.5889736413955688
1676383052030123500,7.27212353515625,0.42377370595932007,15.385738372802734,-0.6224924325942993
1676383052040123600,7.28212353515625,0.4405331015586853,14.791976928710938,-0.5339069962501526
1676383052050122800,7.292122802734375,0.4692635238170624,14.415787696838379,-0.5051765441894531
1676383052060122600,7.30212255859375,0.43335050344467163,14.42297077178955,-0.4812345504760742
1676383052070122800,7.312122802734375,0.42856210470199585,14.367903709411621,-0.4692635238170624
1676383052080122600,7.32212255859375,0.33279404044151306,13.75977611541748,-0.4812345504760742
1676383052090122500,7.33212255859375,0.2801215946674347,13.754987716674805,-0.47405192255973816
1676383052100122600,7.34212255859375,0.16998831927776337,13.496414184570312,-0.47165772318840027
1676383052110123300,7.352123291015625,0.07661445438861847,13.177985191345215,-0.45489832758903503
1676383052120123400,7.362123291015625,-0.002394201699644327,12.873921394348145,-0.47165772318840027
1676383052130123300,7.372123291015625,-0.06464344263076782,12.378321647644043,-0.45489832758903503
1676383052140123400,7.382123291015625,-0.1388636976480484,12.375927925109863,-0.4812345504760742
1676383052150123300,7.392123291015625,-0.2298433631658554,11.92821216583252,-0.47884035110473633
1676383052160123400,7.402123291015625,-0.28969839215278625,11.628936767578125,-0.4596867263317108
1676383052170123300,7.412123291015625,-0.30885201692581177,11.367968559265137,-0.47405192255973816
1676383052180123400,7.422123291015625,-0.3232172429561615,11.291354179382324,-0.4644751250743866
1676383052190123300,7.432123291015625,-0.2849099934101105,10.656890869140625,-0.42856210470199585
1676383052200123400,7.442123291015625,-0.26336219906806946,10.383952140808105,-0.44532153010368347
1676383052210123500,7.45212353515625,-0.2537853717803955,10.206781387329102,-0.42856210470199585
1676383052220123400,7.462123291015625,-0.21547815203666687,10.055946350097656,-0.43335050344467163
1676383052230123500,7.47212353515625,-0.19153612852096558,9.510068893432617,-0.395043283700943
1676383052240123400,7.482123291015625,-0.14365209639072418,9.239523887634277,-0.3734954595565796
1676383052250122500,7.49212255859375,-0.08379705995321274,9.091083526611328,-0.395043283700943
1676383052260122600,7.50212255859375,-0.05746084079146385,8.813355445861816,-0.3447650372982025
1676383052270122500,7.51212255859375,-0.021547814831137657,8.466196060180664,-0.33518823981285095
1676383052280122600,7.52212255859375,0.002394201699644327,8.265083312988281,-0.31603461503982544
1676383052290122500,7.53212255859375,0.016759412363171577,8.1046724319458,-0.2849099934101105
1676383052300122600,7.54212255859375,-0.002394201699644327,7.941866397857666,-0.26096799969673157
1676383052310122500,7.55212255859375,0.019153613597154617,7.6425909996032715,-0.24181437492370605
1676383052320122600,7.56212255859375,0.002394201699644327,7.46302604675293,-0.2322375625371933
1676383052330122500,7.57212255859375,-0.004788403399288654,7.384017467498779,-0.21547815203666687
1676383052340122600,7.58212255859375,-0.0454898327589035,7.249941825866699,-0.20350714027881622
1676383052350123500,7.59212353515625,-0.0694318488240242,7.058405876159668,-0.16759411990642548
1676383052360123400,7.602123291015625,-0.09576806426048279,6.87405252456665,-0.16519992053508759
1676383052370123300,7.612123291015625,-0.11252748221158981,6.924330711364746,-0.11252748221158981
1676383052380123400,7.622123291015625,-0.14844051003456116,6.814197540283203,-0.13168109953403473
1676383052390123500,7.63212353515625,-0.17956513166427612,6.701669692993164,-0.11013327538967133
1676383052400123600,7.64212353515625,-0.20111294090747833,6.696881294250488,-0.0933738648891449
1676383052410123500,7.65212353515625,-0.2561795711517334,6.675333499908447,-0.10055647045373917
1676383052420123600,7.66212353515625,-0.28969839215278625,6.675333499908447,-0.08858546614646912
1676383052430123500,7.67212353515625,-0.3232172429561615,6.663362503051758,-0.05746084079146385
1676383052440123600,7.68212353515625,-0.3447650372982025,6.656179904937744,-0.05506663769483566
1676383052450123000,7.692123046875,-0.38067805767059326,6.744765281677246,-0.0694318488240242
1676383052460123000,7.702122802734375,-0.42377370595932007,6.823774337768555,-0.043095629662275314
1676383052470123000,7.712123046875,-0.4357447028160095,6.909965515136719,-0.0454898327589035
1676383052480123000,7.722122802734375,-0.4429273009300232,7.008127689361572,-0.06464344263076782
1676383052490123000,7.732123046875,-0.4620809257030487,7.166144847869873,-0.05506663769483566
1676383052500123000,7.742122802734375,-0.47644615173339844,7.3361334800720215,-0.05746084079146385
1676383052510122800,7.752122802734375,-0.4596867263317108,7.506121635437012,-0.06703764945268631
1676383052520123000,7.762122802734375,-0.44771572947502136,7.683292388916016,-0.09816227108240128
1676383052530122800,7.772122802734375,-0.40940847992897034,7.8437042236328125,-0.1388636976480484
1676383052540123000,7.782122802734375,-0.38067805767059326,8.092700958251953,-0.16759411990642548
1676383052550123800,7.792123779296875,-0.33997663855552673,8.339303970336914,-0.181959331035614
1676383052560123600,7.80212353515625,-0.2968810200691223,8.569147109985352,-0.22026655077934265
1676383052570123800,7.812123779296875,-0.23942017555236816,8.844480514526367,-0.24181437492370605
1676383052580123600,7.82212353515625,-0.19871874153614044,9.059958457946777,-0.2777273952960968
1676383052590123800,7.832123779296875,-0.1412578970193863,9.280224800109863,-0.3256114423274994
1676383052600123600,7.84212353515625,-0.10773907601833344,9.581894874572754,-0.3208230137825012
1676383052610123800,7.852123779296875,-0.047884032130241394,9.943418502807617,-0.3758896589279175
1676383052620123600,7.86212353515625,0.016759412363171577,10.182839393615723,-0.40222588181495667
1676383052630123800,7.872123779296875,0.047884032130241394,10.405499458312988,-0.44771572947502136
1676383052640123600,7.88212353515625,0.033518824726343155,10.692804336547852,-0.4620809257030487
1676383052650122800,7.892122802734375,0.016759412363171577,10.972926139831543,-0.524330198764801
1676383052660123000,7.902122802734375,0.011971008032560349,11.346421241760254,-0.5386953949928284
1676383052670122800,7.912122802734375,-0.002394201699644327,11.774983406066895,-0.5674257874488831
1676383052680123000,7.922122802734375,-0.023942016065120697,11.952154159545898,-0.6009446382522583
1676383052690122800,7.932122802734375,-0.11971008777618408,11.875539779663086,-0.5482721924781799
1676383052700123000,7.942122802734375,-0.1843535304069519,12.747029304504395,-0.5578489899635315
1676383052710122800,7.952122802734375,-0.24181437492370605,13.031939506530762,-0.586579442024231
1676383052720123000,7.962122802734375,-0.33518823981285095,12.962507247924805,-0.5674257874488831
1676383052730122800,7.972122802734375,-0.3758896589279175,13.012785911560059,-0.5410895943641663
1676383052740123000,7.982122802734375,-0.4405331015586853,13.659219741821289,-0.5267243981361389
1676383052750123500,7.99212353515625,-0.4812345504760742,13.87230396270752,-0.507570743560791
1676383052760123400,8.002123291015625,-0.5386953949928284,14.102147102355957,-0.5027823448181152
1676383052770123500,8.01212353515625,-0.5099649429321289,14.140454292297363,-0.4812345504760742
1676383052780123400,8.022123291015625,-0.5027823448181152,14.396634101867676,-0.4381389021873474
1676383052790123500,8.03212353515625,-0.48602294921875,14.461277961730957,-0.43335050344467163
1676383052800123400,8.042123291015624,-0.42616790533065796,14.585776329040527,-0.43335050344467163
1676383052810123500,8.05212353515625,-0.30885201692581177,14.964359283447266,-0.47165772318840027
1676383052820123600,8.06212353515625,-0.21547815203666687,15.160683631896973,-0.49320554733276367
1676383052830123500,8.07212353515625,-0.1388636976480484,14.964359283447266,-0.5099649429321289
1676383052840123600,8.08212353515625,-0.08379705995321274,15.189414024353027,-0.5171475410461426
1676383052850122800,8.092122802734375,0.031124621629714966,15.153501510620117,-0.5099649429321289
1676383052860122600,8.10212255859375,0.10534487664699554,15.325883865356445,-0.6105214357376099
1676383052870122800,8.112122802734374,0.19632454216480255,15.462352752685547,-0.6560112833976746
1676383052880122600,8.12212255859375,0.17717093229293823,15.352219581604004,-0.6871358752250671
1676383052890122800,8.132122802734376,0.17238251864910126,15.347431182861328,-0.7182605266571045
1676383052900122600,8.14212255859375,0.15562310814857483,15.455170631408691,-0.7445967197418213
1676383052910122800,8.152122802734375,0.14604631066322327,14.818312644958496,-0.7709329724311829
1676383052920122600,8.16212255859375,0.10773907601833344,15.522208213806152,-0.8427590131759644
1676383052930122800,8.172122802734375,0.10534487664699554,15.665860176086426,-0.9241618514060974
1676383052940122600,8.18212255859375,-0.021547814831137657,15.13913631439209,-0.8690952062606812
1676383052950123500,8.19212353515625,-0.08858546614646912,14.770428657531738,-0.828393816947937
1676383052960123400,8.202123291015624,-0.17956513166427612,15.249269485473633,-0.8331822156906128
1676383052970123500,8.21212353515625,-0.18914192914962769,14.633660316467285,-0.7876923680305481
1676383052980123600,8.22212353515625,-0.2059013396501541,14.468460083007812,-0.7781155705451965
1676383052990123500,8.23212353515625,-0.22266076505184174,14.365509033203125,-0.7350199222564697
1676383053000123600,8.24212353515625,-0.21308395266532898,14.298471450805664,-0.706289529800415
1676383053010123500,8.25212353515625,-0.17477671802043915,13.9369478225708,-0.6488286852836609
1676383053020123600,8.26212353515625,-0.1149216815829277,13.594576835632324,-0.6272808313369751
1676383053030123500,8.27212353515625,0.002394201699644327,13.347973823547363,-0.6105214357376099
1676383053040123600,8.28212353515625,0.038307227194309235,13.338397026062012,-0.5937620401382446
1676383053050122800,8.292122802734376,0.13407529890537262,12.981660842895508,-0.5578489899635315
1676383053060122600,8.30212255859375,0.19632454216480255,12.41423511505127,-0.5027823448181152
1676383053070122800,8.312122802734375,0.2585737705230713,12.337620735168457,-0.5027823448181152
1676383053080122600,8.32212255859375,0.31603461503982544,12.30170726776123,-0.5123591423034668
1676383053090122800,8.332122802734375,0.363918662071228,11.830049514770508,-0.5267243981361389
1676383053100122600,8.34212255859375,0.37828385829925537,11.499650001525879,-0.5195417404174805
1676383053110122800,8.352122802734375,0.3998316824436188,11.269806861877441,-0.5195417404174805
1676383053120122600,8.36212255859375,0.3998316824436188,11.123760223388672,-0.545877993106842
1676383053130122800,8.372122802734374,0.40462008118629456,10.733505249023438,-0.5626373887062073
1676383053140122600,8.38212255859375,0.38546648621559143,10.371980667114258,-0.586579442024231
1676383053150123500,8.39212353515625,0.3734954595565796,10.35522174835205,-0.6009446382522583
1676383053160123400,8.402123291015625,0.36152446269989014,10.13974380493164,-0.6320692300796509
1676383053170123500,8.41212353515625,0.3016694188117981,9.759065628051758,-0.6536170840263367
1676383053180123400,8.422123291015625,0.2849099934101105,9.416694641113281,-0.6344634294509888
1676383053190123500,8.43212353515625,0.2537853717803955,9.38556957244873,-0.6368576288223267
1676383053200123400,8.442123291015625,0.24181437492370605,9.052776336669922,-0.6536170840263367
1676383053210122500,8.45212255859375,0.22744916379451752,8.901941299438477,-0.6607996821403503
1676383053220122600,8.46212255859375,0.22505496442317963,8.777442932128906,-0.6847416758537292
1676383053230122500,8.47212255859375,0.21787235140800476,8.549993515014648,-0.6751648783683777
1676383053240122600,8.48212255859375,0.2082955539226532,8.279448509216309,-0.6512228846549988
1676383053250122800,8.492122802734375,0.181959331035614,8.116642951965332,-0.6344634294509888
1676383053260122600,8.50212255859375,0.2106897532939911,7.970596790313721,-0.6320692300796509
1676383053270122500,8.51212255859375,0.22266076505184174,7.695263385772705,-0.6248866319656372
1676383053280122600,8.52212255859375,0.24899697303771973,7.601889610290527,-0.6129156351089478
1676383053290122500,8.53212255859375,0.29209262132644653,7.618649005889893,-0.6153098344802856
1676383053300122600,8.54212255859375,0.31842881441116333,7.585130214691162,-0.6057330369949341
1676383053310122500,8.55212255859375,0.3423708379268646,7.427113056182861,-0.5889736413955688
1676383053320122600,8.56212255859375,0.3734954595565796,7.285854816436768,-0.5722141861915588
1676383053330122500,8.57212255859375,0.3878606855869293,7.228394031524658,-0.5578489899635315
1676383053340122600,8.58212255859375,0.40222588181495667,7.166144847869873,-0.5339069962501526
1676383053350123500,8.59212353515625,0.45489832758903503,7.096713066101074,-0.5339069962501526
1676383053360123400,8.602123291015625,0.4884171485900879,7.103895664215088,-0.5482721924781799
1676383053370123500,8.61212353515625,0.5195417404174805,7.185298442840576,-0.5219359993934631
1676383053380123400,8.622123291015624,0.5434837937355042,7.202057838439941,-0.5578489899635315
1676383053390123500,8.63212353515625,0.5315127968788147,7.218817234039307,-0.5051765441894531
1676383053400123400,8.642123291015626,0.5770025849342346,7.264307022094727,-0.5315127968788147
1676383053410122500,8.65212255859375,0.586579442024231,7.3145856857299805,-0.5195417404174805
1676383053420122600,8.66212255859375,0.5985504388809204,7.429507255554199,-0.5363011956214905
1676383053430122500,8.67212255859375,0.6177040338516235,7.616254806518555,-0.5482721924781799
1676383053440122600,8.68212255859375,0.6033388376235962,7.731176376342773,-0.5482721924781799
1676383053450122800,8.692122802734374,0.6057330369949341,7.874828815460205,-0.569819986820221
1676383053460122600,8.70212255859375,0.6009446382522583,7.987356185913086,-0.5841852426528931
1676383053470122800,8.712122802734376,0.5506663918495178,8.166921615600586,-0.5913678407669067
1676383053480122600,8.72212255859375,0.5410895943641663,8.423100471496582,-0.6105214357376099
1676383053490122800,8.732122802734375,0.5195417404174805,8.626607894897461,-0.6560112833976746
1676383053500122600,8.74212255859375,0.4884171485900879,8.870816230773926,-0.6536170840263367
1676383053510123500,8.75212353515625,0.44532153010368347,9.004891395568848,-0.6655880808830261
1676383053520123400,8.762123291015625,0.4189853072166443,9.146149635314941,-0.667982280254364
1676383053530241000,8.772240966796875,0.3878606855869293,9.402329444885254,-0.6943184733390808
1676383053540241200,8.7822412109375,0.33997663855552673,9.634567260742188,-0.6871358752250671
1676383053550241000,8.792240966796875,0.3016694188117981,9.969755172729492,-0.7086837291717529
1676383053560241200,8.8022412109375,0.2992752194404602,10.285789489746094,-0.7206547260284424
1676383053570241000,8.812240966796875,0.30885201692581177,10.326491355895996,-0.6919242739677429
1676383053580241200,8.8222412109375,0.31364041566848755,10.589853286743164,-0.6967126727104187
1676383053590241000,8.832240966796874,0.33518823981285095,10.95616626739502,-0.706289529800415
1676383053600241200,8.8422412109375,0.31124621629714966,11.379940032958984,-0.6799532771110535
1676383053610240300,8.852240234375,0.35673606395721436,11.408670425415039,-0.6560112833976746
1676383053620240400,8.862240478515625,0.38546648621559143,11.554717063903809,-0.6416460275650024
1676383053630240300,8.872240234375,0.45489832758903503,12.148478507995605,-0.6751648783683777
1676383053640240400,8.882240478515625,0.49559974670410156,12.26579475402832,-0.6560112833976746
1676383053650239500,8.892239501953124,0.5315127968788147,12.272976875305176,-0.6320692300796509
1676383053660239600,8.902239501953124,0.5626373887062073,12.589012145996094,-0.6272808313369751
1676383053670239500,8.912239501953126,0.5793967843055725,13.11573600769043,-0.6320692300796509
1676383053680239600,8.922239501953126,0.6200982332229614,13.137284278869629,-0.6512228846549988
1676383053690239500,8.932239501953125,0.6607996821403503,13.247417449951172,-0.6488286852836609
1676383053700239600,8.942239501953125,0.6512228846549988,13.395857810974121,-0.646434485912323
1676383053710240500,8.952240478515625,0.6009446382522583,13.594576835632324,-0.6655880808830261
1676383053720240400,8.962240478515625,0.5482721924781799,13.948918342590332,-0.6703764796257019
1676383053730240500,8.972240478515625,0.49799394607543945,14.145242691040039,-0.6536170840263367
1676383053740240400,8.982240478515624,0.47165772318840027,14.322413444519043,-0.7086837291717529
1676383053750240500,8.992240478515624,0.40701428055763245,14.379874229431152,-0.7086837291717529
1676383053760240400,9.002240478515626,0.3495534360408783,14.401422500610352,-0.7565677165985107
1676383053770240500,9.012240478515626,0.29209262132644653,14.676755905151367,-0.7493851184844971
1676383053780240400,9.022240478515625,0.2082955539226532,14.803947448730469,-0.7493851184844971
1676383053790240500,9.032240478515625,0.17717093229293823,14.93802261352539,-0.7613561153411865
1676383053800240400,9.042240478515625,0.14365209639072418,14.95957088470459,-0.7733271718025208
1676383053810239700,9.05223974609375,0.17477671802043915,14.96196460723877,-0.7805097699165344
1676383053820239600,9.062239501953124,0.1843535304069519,14.787188529968262,-0.7757213711738586
1676383053830239700,9.07223974609375,0.17717093229293823,14.890138626098633,-0.7637503147125244
1676383053840239600,9.082239501953126,0.1867477297782898,15.005060195922852,-0.7230489253997803
1676383053850238700,9.09223876953125,0.22505496442317963,15.000271797180176,-0.6967126727104187
1676383053860238800,9.10223876953125,0.2777273952960968,14.794370651245117,-0.6799532771110535
1676383053870238700,9.11223876953125,0.33758243918418884,14.62887191772461,-0.6775590777397156
1676383053880238800,9.12223876953125,0.38546648621559143,14.54028606414795,-0.6416460275650024
1676383053890238700,9.13223876953125,0.3974374830722809,14.626477241516113,-0.5937620401382446
1676383053900238800,9.14223876953125,0.3902548849582672,14.387057304382324,-0.5434837937355042
1676383053910239500,9.152239501953124,0.3998316824436188,14.339173316955566,-0.5530605912208557
1676383053920239600,9.162239501953126,0.40222588181495667,14.171579360961914,-0.5410895943641663
1676383053930239500,9.172239501953126,0.3878606855869293,13.8746976852417,-0.5267243981361389
1676383053940239600,9.182239501953125,0.31124621629714966,13.494020462036133,-0.5099649429321289
1676383053950240300,9.192240234375,0.2944868206977844,13.431771278381348,-0.4620809257030487
1676383053960240400,9.202240478515625,0.22744916379451752,13.484443664550781,-0.4405331015586853
1676383053970240300,9.212240234375,0.17717093229293823,13.046304702758789,-0.4357447028160095
1676383053980240400,9.222240478515625,0.1388636976480484,12.864344596862793,-0.4213795065879822
1676383053990240300,9.232240234375,0.05746084079146385,12.6273193359375,-0.40940847992897034
1676383054000240400,9.242240478515624,0.009576806798577309,12.553098678588867,-0.4118026793003082
1676383054010240300,9.252240234375,-0.028730420395731926,12.201150894165039,-0.3998316824436188
1676383054020240400,9.262240478515626,-0.05985504388809204,12.038345336914062,-0.40701428055763245
1676383054030240300,9.272240234375,-0.07422025501728058,11.667243957519531,-0.37828385829925537
1676383054040240400,9.282240478515625,-0.08140286058187485,11.537957191467285,-0.3878606855869293
1676383054050239500,9.292239501953125,-0.10055647045373917,11.20516300201416,-0.3758896589279175
1676383054060239400,9.3022392578125,-0.10295066982507706,10.767024040222168,-0.36152446269989014
1676383054070239500,9.312239501953124,-0.08379705995321274,10.71914005279541,-0.35434186458587646
1676383054080239400,9.3222392578125,-0.0694318488240242,10.721534729003906,-0.33039984107017517
1676383054090239500,9.332239501953126,-0.047884032130241394,10.26663589477539,-0.31603461503982544
1676383054100239400,9.3422392578125,0,9.8691987991333,-0.3064578175544739
1676383054110240300,9.352240234375,0.033518824726343155,9.718363761901855,-0.3208230137825012
1676383054120240400,9.362240478515625,0.0454898327589035,9.593865394592285,-0.2777273952960968
1676383054130240300,9.372240234375,0.05027823522686958,9.155726432800293,-0.2753331959247589
1676383054140240100,9.382240234375,0.05985504388809204,9.117419242858887,-0.2561795711517334
1676383054150241000,9.392240966796875,0.05506663769483566,8.880393028259277,-0.22026655077934265
1676383054160241200,9.4022412109375,0.05267243832349777,8.70561695098877,-0.2082955539226532
1676383054170241000,9.412240966796874,0.06703764945268631,8.415918350219727,-0.20111294090747833
1676383054180241200,9.4222412109375,0.06464344263076782,8.166921615600586,-0.19393034279346466
1676383054190241000,9.432240966796876,0.023942016065120697,7.972990989685059,-0.15801730751991272
1676383054200241200,9.4422412109375,0.023942016065120697,7.915530204772949,-0.12689268589019775
1676383054210241000,9.452240966796875,-0.019153613597154617,7.76948356628418,-0.09816227108240128
1676383054220241200,9.4622412109375,-0.035913024097681046,7.71202278137207,-0.05746084079146385
1676383054230241000,9.472240966796875,-0.07900865375995636,7.609072208404541,-0.05506663769483566
1676383054240241200,9.4822412109375,-0.0933738648891449,7.4462666511535645,-0.05506663769483566
1676383054250240300,9.492240234375,-0.13168109953403473,7.3145856857299805,-0.043095629662275314
1676383054260240100,9.502240234375,-0.12928688526153564,7.130231857299805,-0.043095629662275314
1676383054270240300,9.512240234375,-0.15801730751991272,7.144597053527832,-0.038307227194309235
1676383054280240000,9.522240234375,-0.17956513166427612,7.247547626495361,-0.011971008032560349
1676383054290240300,9.532240234375,-0.21547815203666687,7.264307022094727,-0.011971008032560349
1676383054300240100,9.542240234375,-0.22505496442317963,7.144597053527832,0.004788403399288654
1676383054310240300,9.552240234375,-0.24181437492370605,7.130231857299805,0.002394201699644327
1676383054320240000,9.562240234375,-0.24420857429504395,7.1565680503845215,-0.0071826050989329815
1676383054330240300,9.572240234375,-0.2298433631658554,7.1805100440979,-0.009576806798577309
1676383054340240100,9.582240234375,-0.2561795711517334,7.293037414550781,-0.016759412363171577
1676383054350241000,9.592240966796876,-0.24660277366638184,7.369652271270752,-0.035913024097681046
1676383054360241200,9.6022412109375,-0.26336219906806946,7.484573841094971,-0.019153613597154617
1676383054370241000,9.612240966796875,-0.24660277366638184,7.527669429779053,-0.014365210197865963
1676383054380241200,9.6222412109375,-0.23942017555236816,7.6641387939453125,-0.05746084079146385
1676383054390241000,9.632240966796875,-0.2059013396501541,7.814973831176758,-0.07900865375995636
1676383054400241200,9.6422412109375,-0.17956513166427612,7.98256778717041,-0.12689268589019775
1676383054410241000,9.652240966796874,-0.15322890877723694,8.171710014343262,-0.1364694982767105
1676383054420241200,9.6622412109375,-0.13407529890537262,8.389581680297852,-0.1364694982767105
1676383054430241000,9.672240966796876,-0.1173158809542656,8.552388191223145,-0.15801730751991272
1676383054440241200,9.6822412109375,-0.11013327538967133,8.70561695098877,-0.17238251864910126
1676383054450240300,9.692240234375,-0.0694318488240242,8.875604629516602,-0.22266076505184174
1676383054460240400,9.702240478515625,-0.05027823522686958,9.13657283782959,-0.24660277366638184
1676383054470240300,9.712240234375,-0.040701430290937424,9.375992774963379,-0.2968810200691223
1676383054480240400,9.722240478515625,-0.031124621629714966,9.560346603393555,-0.30885201692581177
1676383054490240300,9.732240234375,-0.033518824726343155,9.809343338012695,-0.33279404044151306
1676383054500240400,9.742240478515624,-0.021547814831137657,10.122983932495117,-0.35434186458587646
1676383054510240300,9.752240234375,-0.021547814831137657,10.340856552124023,-0.40462008118629456
1676383054520240400,9.762240478515626,-0.033518824726343155,10.477325439453125,-0.4381389021873474
1676383054530240300,9.772240234375,-0.0694318488240242,10.709563255310059,-0.4644751250743866
1676383054540240400,9.782240478515625,-0.0933738648891449,11.085453033447266,-0.47644615173339844
1676383054550241000,9.792240966796875,-0.15083470940589905,11.437400817871094,-0.5171475410461426
1676383054560241200,9.8022412109375,-0.15083470940589905,11.432612419128418,-0.5195417404174805
1676383054570241000,9.812240966796875,-0.17238251864910126,11.789348602294922,-0.5363011956214905
1676383054580241200,9.8222412109375,-0.2082955539226532,12.088624000549316,-0.5602431893348694
1676383054590241000,9.832240966796874,-0.22505496442317963,12.205939292907715,-0.5817909836769104
1676383054600241200,9.8422412109375,-0.2849099934101105,12.44775390625,-0.5482721924781799
1676383054610241000,9.852240966796876,-0.304063618183136,12.909834861755371,-0.5578489899635315
1676383054620241200,9.8622412109375,-0.2801215946674347,12.90025806427002,-0.5650315880775452
1676383054630241000,9.872240966796875,-0.28969839215278625,12.890681266784668,-0.545877993106842
1676383054640241200,9.8822412109375,-0.31364041566848755,13.446136474609375,-0.5123591423034668
1676383054650240300,9.892240234375,-0.2944868206977844,13.63527774810791,-0.5195417404174805
1676383054660240100,9.902240234375,-0.2561795711517334,13.379097938537598,-0.4908113479614258
1676383054670240300,9.912240234375,-0.21308395266532898,13.81723690032959,-0.4812345504760742
1676383054680240000,9.922240234375,-0.17956513166427612,14.169184684753418,-0.5051765441894531
1676383054690240300,9.932240234375,-0.11971008777618408,14.0542631149292,-0.4908113479614258
1676383054700240100,9.942240234375,-0.09816227108240128,13.982437133789062,-0.4836287498474121
1676383054710240300,9.952240234375,-0.07661445438861847,14.219463348388672,-0.49320554733276367
1676383054720240000,9.962240234375,-0.0454898327589035,14.372692108154297,-0.5410895943641663
1676383054730240300,9.972240234375,0.019153613597154617,14.355932235717773,-0.5913678407669067
1676383054740240100,9.982240234375,0.014365210197865963,14.454094886779785,-0.6129156351089478
1676383054750241000,9.992240966796874,0.028730420395731926,14.645630836486816,-0.646434485912323
1676383054760241200,10.0022412109375,0.0071826050989329815,14.231433868408203,-0.6560112833976746
1676383054770241000,10.012240966796876,-0.0071826050989329815,14.494796752929688,-0.6751648783683777
1676383054780241200,10.0222412109375,0.0071826050989329815,14.707880020141602,-0.7637503147125244
1676383054790241000,10.032240966796875,0.004788403399288654,14.329596519470215,-0.7757213711738586
1676383054800241200,10.0422412109375,-0.040701430290937424,14.638448715209961,-0.7972691655158997
1676383054810241000,10.052240966796875,-0.038307227194309235,14.535497665405273,-0.8140285611152649
1676383054820241200,10.0622412109375,-0.08379705995321274,14.006379127502441,-0.790086567401886
1676383054830241000,10.072240966796874,-0.06224924325942993,14.432547569274902,-0.8331822156906128
1676383054840241200,10.0822412109375,-0.043095629662275314,14.48282527923584,-0.8906430602073669
1676383054850240500,10.092240478515626,-0.10055647045373917,13.733440399169922,-0.7996633648872375
1676383054860240400,10.102240478515625,-0.09576806426048279,14.011167526245117,-0.790086567401886
1676383054870240500,10.112240478515625,-0.09576806426048279,13.855544090270996,-0.7469909191131592
1676383054880240400,10.122240478515625,-0.047884032130241394,12.928988456726074,-0.6631938815116882
1676383054890240300,10.132240234375,-0.019153613597154617,13.304878234863281,-0.7134721279144287
1676383054900240400,10.142240478515625,0.05746084079146385,13.790901184082031,-0.7134721279144287
1676383054910240300,10.152240234375,0.0933738648891449,12.670414924621582,-0.6703764796257019
1676383054920240400,10.162240478515624,0.07182604819536209,12.313678741455078,-0.5817909836769104
1676383054930240300,10.172240234375,0.11252748221158981,12.828432083129883,-0.5817909836769104
1676383054940240400,10.182240478515626,0.16998831927776337,12.138901710510254,-0.5291185975074768
1676383054950241300,10.1922412109375,0.21547815203666687,11.672032356262207,-0.5291185975074768
1676383054960241200,10.2022412109375,0.26575639843940735,12.000038146972656,-0.5530605912208557
1676383054970241300,10.2122412109375,0.26815059781074524,11.834837913513184,-0.5171475410461426
1676383054980241200,10.2222412109375,0.2561795711517334,11.061511039733887,-0.4812345504760742
1676383054990241300,10.2322412109375,0.2537853717803955,10.992079734802246,-0.5003881454467773
1676383055000241200,10.2422412109375,0.26815059781074524,11.063905715942383,-0.5099649429321289
1676383055010241300,10.2522412109375,0.2753331959247589,10.695198059082031,-0.5339069962501526
1676383055020241200,10.2622412109375,0.28969839215278625,10.221146583557129,-0.5530605912208557
1676383055030241300,10.2722412109375,0.2561795711517334,10.156502723693848,-0.5482721924781799
1676383055040241200,10.2822412109375,0.22744916379451752,10.218751907348633,-0.5363011956214905
1676383055050240500,10.292240478515625,0.2513911724090576,9.972148895263672,-0.5817909836769104
1676383055060240400,10.302240478515625,0.2322375625371933,9.419088363647461,-0.5770025849342346
1676383055070240500,10.312240478515625,0.23702596127986908,9.177274703979492,-0.586579442024231
1676383055080240400,10.322240478515624,0.23702596127986908,9.368810653686523,-0.6272808313369751
1676383055090240500,10.332240478515626,0.2513911724090576,9.206005096435547,-0.6009446382522583
1676383055100240400,10.342240478515626,0.26815059781074524,8.846874237060547,-0.6200982332229614
1676383055110240500,10.352240478515625,0.2585737705230713,8.631396293640137,-0.608127236366272
1676383055120240400,10.362240478515625,0.24660277366638184,8.626607894897461,-0.6129156351089478
1676383055130240500,10.372240478515625,0.26815059781074524,8.43746566772461,-0.6129156351089478
1676383055140240400,10.382240478515625,0.2801215946674347,8.114249229431152,-0.6033388376235962
1676383055150241000,10.392240966796875,0.28969839215278625,8.109460830688477,-0.6009446382522583
1676383055160241200,10.4022412109375,0.3208230137825012,8.154950141906738,-0.6033388376235962
1676383055170241000,10.412240966796874,0.3495534360408783,7.970596790313721,-0.5937620401382446
1676383055180241200,10.4222412109375,0.35434186458587646,7.793426036834717,-0.5746083855628967
1676383055190241000,10.432240966796876,0.3663128614425659,7.771877765655518,-0.5482721924781799
1676383055200241200,10.4422412109375,0.3758896589279175,7.721599578857422,-0.5363011956214905
1676383055210240300,10.452240234375,0.395043283700943,7.5994954109191895,-0.5315127968788147
1676383055220240100,10.462240234375,0.40222588181495667,7.5875244140625,-0.49559974670410156
1676383055230240300,10.472240234375,0.45010992884635925,7.673715591430664,-0.5195417404174805
1676383055240240000,10.482240234375,0.44771572947502136,7.692869186401367,-0.5051765441894531
1676383055250240300,10.492240234375,0.4572925269603729,7.570765018463135,-0.47884035110473633
1676383055260240100,10.502240234375,0.47644615173339844,7.513304233551025,-0.4572925269603729
1676383055270240300,10.512240234375,0.49559974670410156,7.601889610290527,-0.4357447028160095
1676383055280240000,10.522240234375,0.49320554733276367,7.704840183258057,-0.43095630407333374
1676383055290240300,10.532240234375,0.5051765441894531,7.8006086349487305,-0.4620809257030487
1676383055300240100,10.542240234375,0.5027823448181152,7.9322896003723145,-0.4572925269603729
1676383055310240300,10.552240234375,0.5147533416748047,7.965808391571045,-0.4596867263317108
1676383055320240000,10.562240234375,0.5051765441894531,8.047211647033691,-0.4429273009300232
1676383055330240300,10.572240234375,0.49559974670410156,8.166921615600586,-0.44532153010368347
1676383055340240100,10.582240234375,0.47405192255973816,8.315361976623535,-0.4429273009300232
1676383055350241000,10.592240966796876,0.4644751250743866,8.52365779876709,-0.47165772318840027
1676383055360241200,10.6022412109375,0.4596867263317108,8.672098159790039,-0.4908113479614258
1676383055370241000,10.612240966796875,0.44532153010368347,8.849268913269043,-0.4884171485900879
1676383055380241200,10.6222412109375,0.40940847992897034,9.009679794311523,-0.5051765441894531
1676383055390241000,10.632240966796875,0.3974374830722809,9.158121109008789,-0.5339069962501526
1676383055400241200,10.6422412109375,0.3711012601852417,9.354445457458496,-0.5482721924781799
1676383055410241000,10.652240966796874,0.35913026332855225,9.522039413452148,-0.545877993106842
1676383055420241200,10.6622412109375,0.3423708379268646,9.706393241882324,-0.5722141861915588
1676383055430241000,10.672240966796876,0.3495534360408783,10.032004356384277,-0.5889736413955688
1676383055440241200,10.6822412109375,0.3280056416988373,10.247482299804688,-0.6129156351089478
1676383055450240300,10.692240234375,0.31603461503982544,10.336068153381348,-0.6105214357376099
1676383055460240100,10.702240234375,0.31603461503982544,10.529998779296875,-0.5841852426528931
1676383055470240300,10.712240234375,0.3256114423274994,11.01123332977295,-0.6129156351089478
1676383055480240000,10.722240234375,0.35434186458587646,11.090241432189941,-0.6057330369949341
1676383055490240300,10.732240234375,0.3758896589279175,11.200374603271484,-0.608127236366272
1676383055500240100,10.742240234375,0.3878606855869293,11.502044677734375,-0.6129156351089478
1676383055510241000,10.752240966796874,0.3758896589279175,11.700762748718262,-0.6009446382522583
1676383055520241200,10.7622412109375,0.38067805767059326,11.87075138092041,-0.5841852426528931
1676383055530241000,10.772240966796875,0.40462008118629456,12.162843704223633,-0.5770025849342346
1676383055540241200,10.7822412109375,0.4357447028160095,12.4693021774292,-0.5793967843055725
1676383055550241000,10.792240966796875,0.44771572947502136,12.488455772399902,-0.5482721924781799
1676383055560241200,10.8022412109375,0.44771572947502136,12.442965507507324,-0.569819986820221
1676383055570241000,10.812240966796875,0.4596867263317108,12.763788223266602,-0.5482721924781799
1676383055580241200,10.8222412109375,0.4357447028160095,12.993632316589355,-0.5482721924781799
1676383055590241000,10.832240966796874,0.42377370595932007,13.173196792602539,-0.5386953949928284
1676383055600241200,10.8422412109375,0.40940847992897034,13.218687057495117,-0.524330198764801
1676383055610240300,10.852240234375,0.40940847992897034,13.525144577026367,-0.5434837937355042
1676383055620240400,10.862240478515625,0.38307225704193115,13.517962455749512,-0.5602431893348694
1676383055630240300,10.872240234375,0.3519476354122162,13.587393760681152,-0.5841852426528931
1676383055640240400,10.882240478515625,0.30885201692581177,13.75977611541748,-0.5841852426528931
1676383055650239500,10.892239501953124,0.29209262132644653,13.924976348876953,-0.5889736413955688
1676383055660239400,10.9022392578125,0.26815059781074524,13.893851280212402,-0.5937620401382446
1676383055670239500,10.912239501953126,0.24181437492370605,14.0542631149292,-0.6224924325942993
1676383055680239400,10.9222392578125,0.21547815203666687,14.08778190612793,-0.6440402865409851
1676383055690239500,10.932239501953125,0.22026655077934265,13.934553146362305,-0.6368576288223267
1676383055700239400,10.9422392578125,0.22266076505184174,13.972860336303711,-0.646434485912323
1676383055710239500,10.952239501953125,0.21308395266532898,14.106935501098633,-0.6655880808830261
1676383055720239400,10.9622392578125,0.19153612852096558,14.094964981079102,-0.6392518281936646
1676383055730239500,10.972239501953124,0.20111294090747833,13.929764747619629,-0.6105214357376099
1676383055740239400,10.9822392578125,0.20111294090747833,13.944129943847656,-0.6368576288223267
1676383055750240300,10.992240234375,0.22744916379451752,13.965678215026855,-0.646434485912323
1676383055760240400,11.002240478515626,0.22026655077934265,13.771747589111328,-0.5913678407669067
1676383055770240300,11.012240234375,0.23942017555236816,13.640066146850586,-0.5961562395095825
1676383055780240400,11.022240478515625,0.2346317619085312,13.776535987854004,-0.5746083855628967
1676383055790240300,11.032240234375,0.2346317619085312,13.33121395111084,-0.5554547905921936
1676383055800240400,11.042240478515625,0.23942017555236816,13.223475456237793,-0.5315127968788147
1676383055810240300,11.052240234375,0.22744916379451752,13.27375316619873,-0.5195417404174805
1676383055820240400,11.062240478515625,0.1867477297782898,12.9026517868042,-0.4596867263317108
1676383055830240300,11.072240234375,0.17477671802043915,12.81167221069336,-0.45250412821769714
1676383055840240400,11.082240478515626,0.1388636976480484,12.708722114562988,-0.43095630407333374
1676383055850239700,11.09223974609375,0.12689268589019775,12.47887897491455,-0.3974374830722809
1676383055860239600,11.102239501953125,0.10773907601833344,12.040740013122559,-0.3974374830722809
1676383055870239700,11.11223974609375,0.06464344263076782,12.14129638671875,-0.38067805767059326
1676383055880239600,11.122239501953125,0.031124621629714966,11.822867393493652,-0.3902548849582672
1676383055890239700,11.13223974609375,-0.004788403399288654,11.806107521057129,-0.35673606395721436
1676383055900239600,11.142239501953124,-0.0454898327589035,11.439794540405273,-0.33279404044151306
1676383055910240300,11.152240234375,-0.05267243832349777,11.286565780639648,-0.33997663855552673
1676383055920240400,11.162240478515624,-0.043095629662275314,10.960954666137695,-0.3423708379268646
1676383055930240300,11.172240234375,-0.07182604819536209,10.814908027648926,-0.36152446269989014
1676383055940240400,11.182240478515626,-0.06703764945268631,10.597036361694336,-0.36152446269989014
1676383055950241300,11.1922412109375,-0.07182604819536209,10.474931716918945,-0.3519476354122162
1676383055960241200,11.2022412109375,-0.0694318488240242,10.204386711120605,-0.35673606395721436
1676383055970241300,11.2122412109375,-0.07661445438861847,10.010457038879395,-0.3447650372982025
1676383055980241200,11.2222412109375,-0.07900865375995636,9.917082786560059,-0.3471592366695404
1676383055990241300,11.2322412109375,-0.06703764945268631,9.735123634338379,-0.35673606395721436
1676383056000241200,11.2422412109375,-0.05985504388809204,9.380781173706055,-0.3495534360408783
1676383056010241300,11.2522412109375,-0.06464344263076782,9.28261947631836,-0.3256114423274994
1676383056020241200,11.2622412109375,-0.05506663769483566,9.074323654174805,-0.31124621629714966
1676383056030241300,11.2722412109375,-0.05267243832349777,8.978555679321289,-0.2992752194404602
1676383056040241200,11.2822412109375,-0.06464344263076782,8.710405349731445,-0.304063618183136
1676383056050240500,11.292240478515625,-0.07182604819536209,8.679280281066895,-0.304063618183136
1676383056060240400,11.302240478515625,-0.0694318488240242,8.456619262695312,-0.26575639843940735
1676383056070240500,11.312240478515625,-0.0454898327589035,8.293813705444336,-0.2561795711517334
1676383056080240400,11.322240478515624,-0.07900865375995636,8.233959197998047,-0.2513911724090576
1676383056090240500,11.332240478515626,-0.08379705995321274,8.142979621887207,-0.2298433631658554
1676383056100240400,11.342240478515626,-0.06703764945268631,7.968202590942383,-0.2059013396501541
1676383056110240500,11.352240478515625,-0.1149216815829277,7.855675220489502,-0.1867477297782898
1676383056120240400,11.362240478515625,-0.1173158809542656,7.870040416717529,-0.181959331035614
1676383056130240500,11.372240478515625,-0.12928688526153564,7.81257963180542,-0.17238251864910126
1676383056140240400,11.382240478515625,-0.15801730751991272,7.733570575714111,-0.15562310814857483
1676383056150241000,11.392240966796875,-0.15562310814857483,7.6210432052612305,-0.15083470940589905
1676383056160241200,11.4022412109375,-0.17717093229293823,7.644985198974609,-0.1364694982767105
1676383056170241000,11.412240966796874,-0.2059013396501541,7.6641387939453125,-0.11971008777618408
1676383056180241200,11.4222412109375,-0.21547815203666687,7.659350395202637,-0.1149216815829277
1676383056190241000,11.432240966796876,-0.21547815203666687,7.635408401489258,-0.12928688526153564
1676383056200241200,11.4422412109375,-0.2322375625371933,7.735964775085449,-0.10295066982507706
1676383056210241000,11.452240966796875,-0.24420857429504395,7.7527241706848145,-0.11013327538967133
1676383056220241200,11.4622412109375,-0.24899697303771973,7.795820236206055,-0.12449848651885986
1676383056230241000,11.472240966796875,-0.2585737705230713,7.877223014831543,-0.1388636976480484
1676383056240241200,11.4822412109375,-0.26336219906806946,7.939472198486328,-0.14604631066322327
1676383056250240300,11.492240234375,-0.26575639843940735,8.099884033203125,-0.1412578970193863
1676383056260240100,11.502240234375,-0.27054479718208313,8.207622528076172,-0.1604115068912506
1676383056270240300,11.512240234375,-0.2753331959247589,8.348880767822266,-0.18914192914962769
1676383056280240000,11.522240234375,-0.272938996553421,8.461407661437988,-0.19153612852096558
1676383056290240300,11.532240234375,-0.23942017555236816,8.609848976135254,-0.23702596127986908
1676383056300240100,11.542240234375,-0.21787235140800476,8.77265453338623,-0.2513911724090576
1676383056310240300,11.552240234375,-0.2106897532939911,9.004891395568848,-0.28730419278144836
1676383056320240000,11.562240234375,-0.1867477297782898,9.1940336227417,-0.31124621629714966
1676383056330240300,11.572240234375,-0.16519992053508759,9.332897186279297,-0.31124621629714966
1676383056340240100,11.582240234375,-0.14365209639072418,9.505280494689941,-0.3495534360408783
1676383056350241000,11.592240966796876,-0.1173158809542656,9.65611457824707,-0.38307225704193115
1676383056360241200,11.6022412109375,-0.09816227108240128,9.785401344299316,-0.40701428055763245
1676383056370241000,11.612240966796875,-0.08858546614646912,10.084676742553711,-0.43095630407333374
1676383056380241200,11.6222412109375,-0.05506663769483566,10.283395767211914,-0.42856210470199585
1676383056390241000,11.632240966796875,-0.05027823522686958,10.494085311889648,-0.4812345504760742
1676383056400241200,11.6422412109375,-0.047884032130241394,10.611401557922363,-0.5051765441894531
1676383056410241000,11.652240966796874,-0.019153613597154617,10.877157211303711,-0.48602294921875
1676383056420241200,11.6622412109375,-0.05746084079146385,11.054328918457031,-0.507570743560791
1676383056430241000,11.672240966796876,-0.07900865375995636,11.399093627929688,-0.5291185975074768
1676383056440241200,11.6822412109375,-0.06464344263076782,11.403882026672363,-0.5363011956214905
1676383056450240300,11.692240234375,-0.11252748221158981,11.645696640014648,-0.5410895943641663
1676383056460240100,11.702240234375,-0.12449848651885986,11.87075138092041,-0.5386953949928284
1676383056470240300,11.712240234375,-0.17717093229293823,12.225092887878418,-0.5410895943641663
1676383056480240000,11.722240234375,-0.22266076505184174,12.220304489135742,-0.5482721924781799
1676383056490240300,11.732240234375,-0.24181437492370605,12.387898445129395,-0.5291185975074768
1676383056500240100,11.742240234375,-0.2561795711517334,12.44536018371582,-0.507570743560791
1676383056510240300,11.752240234375,-0.28969839215278625,12.861950874328613,-0.5027823448181152
1676383056520240000,11.762240234375,-0.2825157940387726,12.888286590576172,-0.49559974670410156
1676383056530240300,11.772240234375,-0.2849099934101105,12.921805381774902,-0.5003881454467773
1676383056540240100,11.782240234375,-0.2992752194404602,13.199533462524414,-0.49320554733276367
1676383056550241000,11.792240966796875,-0.26336219906806946,13.312060356140137,-0.49559974670410156
1676383056560241200,11.8022412109375,-0.2561795711517334,13.087005615234375,-0.4692635238170624
1676383056570241000,11.812240966796875,-0.2082955539226532,13.405434608459473,-0.5051765441894531
1676383056580241200,11.8222412109375,-0.14844051003456116,13.532327651977539,-0.49559974670410156
1676383056590241000,11.832240966796874,-0.10055647045373917,13.472472190856934,-0.5339069962501526
1676383056600241200,11.8422412109375,-0.07422025501728058,13.673584938049316,-0.5602431893348694
1676383056610241000,11.852240966796876,-0.026336219161748886,13.666402816772461,-0.586579442024231
1676383056620241200,11.8622412109375,-0.009576806798577309,13.537116050720215,-0.6009446382522583
1676383056630241000,11.872240966796875,0.047884032130241394,13.798083305358887,-0.6105214357376099
1676383056640241200,11.8822412109375,0.07182604819536209,13.671191215515137,-0.6727706789970398
1676383056650240300,11.892240234375,0.08140286058187485,13.573028564453125,-0.667982280254364
1676383056660240100,11.902240234375,0.07900865375995636,13.778929710388184,-0.6991068720817566
1676383056670240300,11.912240234375,0.07182604819536209,13.714286804199219,-0.7134721279144287
1676383056680240000,11.922240234375,0.05985504388809204,13.32882022857666,-0.7110779285430908
1676383056690240300,11.932240234375,0.06464344263076782,13.393463134765625,-0.7158663272857666
1676383056700240100,11.942240234375,0.047884032130241394,13.599365234375,-0.7326257228851318
1676383056710240300,11.952240234375,0.028730420395731926,13.443741798400879,-0.7541735172271729
1676383056720240000,11.962240234375,-0.0071826050989329815,13.187561988830566,-0.7350199222564697
1676383056730240300,11.972240234375,-0.043095629662275314,13.168408393859863,-0.689530074596405
1676383056740240100,11.982240234375,-0.028730420395731926,13.027151107788086,-0.6584054827690125
1676383056750241000,11.992240966796874,-0.047884032130241394,12.689568519592285,-0.6440402865409851
1676383056760241000,12.002240966796874,-0.040701430290937424,12.397475242614746,-0.6129156351089478
1676383056770241000,12.012240966796876,-0.033518824726343155,12.703933715820312,-0.6200982332229614
1676383056780241000,12.022240966796875,0.031124621629714966,12.550704956054688,-0.6153098344802856
1676383056790241000,12.032240966796875,0.043095629662275314,12.074258804321289,-0.5770025849342346
1676383056800241000,12.042240966796875,0.035913024097681046,11.69118595123291,-0.5339069962501526
1676383056810241000,12.052240966796875,0.047884032130241394,11.98327922821045,-0.5291185975074768
1676383056820241200,12.0622412109375,0.09576806426048279,11.561899185180664,-0.5027823448181152
1676383056830241000,12.072240966796874,0.14365209639072418,11.221922874450684,-0.507570743560791
1676383056840241200,12.0822412109375,0.181959331035614,11.193192481994629,-0.524330198764801
1676383056850240300,12.092240234375,0.2346317619085312,11.274595260620117,-0.5123591423034668
1676383056860240100,12.102240234375,0.2585737705230713,10.757447242736816,-0.48602294921875
1676383056870240300,12.112240234375,0.26815059781074524,10.496479988098145,-0.48602294921875
1676383056880240000,12.122240234375,0.28969839215278625,10.455778121948242,-0.49559974670410156
1676383056890240300,12.132240234375,0.3232172429561615,10.336068153381348,-0.5123591423034668
1676383056900240100,12.142240234375,0.35913026332855225,10.0487642288208,-0.5099649429321289
1676383056910240300,12.152240234375,0.3447650372982025,9.914688110351562,-0.5219359993934631
1676383056920240000,12.162240234375,0.35434186458587646,9.881169319152832,-0.5171475410461426
1676383056930240300,12.172240234375,0.3256114423274994,9.579500198364258,-0.5171475410461426
1676383056940240100,12.182240234375,0.304063618183136,9.237129211425781,-0.5099649429321289
1676383056950241000,12.192240966796875,0.31124621629714966,9.206005096435547,-0.5219359993934631
1676383056960241200,12.2022412109375,0.3256114423274994,9.31853199005127,-0.5793967843055725
1676383056970241000,12.212240966796875,0.33039984107017517,9.009679794311523,-0.5746083855628967
1676383056980241200,12.2222412109375,0.28730419278144836,8.751106262207031,-0.569819986820221
1676383056990241000,12.232240966796875,0.2825157940387726,8.870816230773926,-0.5482721924781799
1676383057000241200,12.2422412109375,0.2753331959247589,8.70801067352295,-0.5506663918495178
1676383057010240300,12.252240234375,0.2849099934101105,8.339303970336914,-0.5315127968788147
1676383057020240100,12.262240234375,0.27054479718208313,8.277054786682129,-0.5363011956214905
1676383057030240300,12.272240234375,0.29209262132644653,8.466196060180664,-0.569819986820221
1676383057040240000,12.282240234375,0.2849099934101105,8.382399559020996,-0.5410895943641663
1676383057050239200,12.2922392578125,0.304063618183136,8.140584945678711,-0.5003881454467773
1676383057060239400,12.3022392578125,0.2968810200691223,8.063970565795898,-0.49320554733276367
1676383057070239200,12.3122392578125,0.30885201692581177,8.085518836975098,-0.47644615173339844
1676383057080239400,12.3222392578125,0.31603461503982544,7.965808391571045,-0.4668693244457245
1676383057090239500,12.332239501953126,0.33997663855552673,7.915530204772949,-0.47884035110473633
1676383057100239400,12.3422392578125,0.38546648621559143,8.052000045776367,-0.49320554733276367
1676383057110239200,12.3522392578125,0.3998316824436188,8.121431350708008,-0.47165772318840027
1676383057120239400,12.3622392578125,0.4165911078453064,8.004115104675293,-0.45489832758903503
1676383057130239200,12.3722392578125,0.42856210470199585,7.93707799911499,-0.44771572947502136
1676383057140239400,12.3822392578125,0.42856210470199585,7.9945387840271,-0.4213795065879822
1676383057150240300,12.392240234375,0.44532153010368347,8.092700958251953,-0.44532153010368347
1676383057160240000,12.402240234375,0.47644615173339844,8.186075210571289,-0.44532153010368347
1676383057170240300,12.412240234375,0.49320554733276367,8.23156452178955,-0.43335050344467163
1676383057180240100,12.422240234375,0.5123591423034668,8.34648609161377,-0.44532153010368347
1676383057190240300,12.432240234375,0.5195417404174805,8.432677268981934,-0.4405331015586853
1676383057200240000,12.442240234375,0.5147533416748047,8.497321128845215,-0.4213795065879822
1676383057210240300,12.452240234375,0.49799394607543945,8.609848976135254,-0.43335050344467163
1676383057220240400,12.462240478515625,0.5027823448181152,8.767866134643555,-0.4429273009300232
1676383057230240300,12.472240234375,0.4836287498474121,8.983344078063965,-0.4620809257030487
1676383057240240400,12.482240478515624,0.44771572947502136,9.143755912780762,-0.49799394607543945
1676383057250239500,12.492239501953126,0.4357447028160095,9.234735488891602,-0.5027823448181152
1676383057260239400,12.5022392578125,0.40222588181495667,9.347262382507324,-0.49799394607543945
1676383057270239500,12.512239501953125,0.37828385829925537,9.486125946044922,-0.5123591423034668
1676383057280239400,12.5222392578125,0.35673606395721436,9.718363761901855,-0.5434837937355042
1676383057290239500,12.532239501953125,0.33279404044151306,9.943418502807617,-0.5554547905921936
1676383057300239400,12.5422392578125,0.304063618183136,10.113407135009766,-0.5602431893348694
1676383057310240300,12.552240234375,0.28969839215278625,10.190021514892578,-0.5722141861915588
1676383057320240400,12.562240478515625,0.26336219906806946,10.281001091003418,-0.5722141861915588
1676383057330240300,12.572240234375,0.2537853717803955,10.623372077941895,-0.5530605912208557
1676383057340240400,12.582240478515626,0.23942017555236816,10.8412446975708,-0.5650315880775452
1676383057350241300,12.5922412109375,0.2585737705230713,10.98729133605957,-0.5554547905921936
1676383057360241200,12.6022412109375,0.24660277366638184,11.150096893310547,-0.5602431893348694
1676383057370241300,12.6122412109375,0.2561795711517334,11.379940032958984,-0.5530605912208557
1676383057380241200,12.6222412109375,0.28969839215278625,11.490073204040527,-0.545877993106842
1676383057390241300,12.6322412109375,0.30885201692581177,11.62175464630127,-0.5482721924781799
1676383057400241200,12.6422412109375,0.31842881441116333,11.763011932373047,-0.5482721924781799
1676383057410240300,12.652240234375,0.35434186458587646,11.925817489624023,-0.5219359993934631
1676383057420240400,12.662240478515624,0.3663128614425659,12.1101713180542,-0.5051765441894531
1676383057430240300,12.672240234375,0.3974374830722809,12.284948348999023,-0.5099649429321289
1676383057440240400,12.682240478515626,0.40701428055763245,12.351985931396484,-0.5386953949928284
1676383057450239500,12.692239501953125,0.43335050344467163,12.404658317565918,-0.5027823448181152
1676383057460239400,12.7022392578125,0.42616790533065796,12.744634628295898,-0.5171475410461426
1676383057470239500,12.712239501953125,0.4118026793003082,12.744634628295898,-0.5003881454467773
1676383057480239400,12.7222392578125,0.3974374830722809,12.84519100189209,-0.507570743560791
1676383057490239500,12.732239501953124,0.3758896589279175,12.917016983032227,-0.5267243981361389
1676383057500239400,12.7422392578125,0.3734954595565796,13.051093101501465,-0.524330198764801
1676383057510239200,12.7522392578125,0.3208230137825012,13.118130683898926,-0.5434837937355042
1676383057520239400,12.7622392578125,0.2801215946674347,13.187561988830566,-0.5315127968788147
1676383057530239200,12.7722392578125,0.24899697303771973,13.290513038635254,-0.5961562395095825
1676383057540239400,12.7822392578125,0.22744916379451752,13.369521141052246,-0.5889736413955688
1676383057550240300,12.792240234375,0.20350714027881622,13.187561988830566,-0.5913678407669067
1676383057560240000,12.802240234375,0.17238251864910126,13.199533462524414,-0.6009446382522583
1676383057570240300,12.812240234375,0.13407529890537262,13.470078468322754,-0.5841852426528931
1676383057580240100,12.822240234375,0.11252748221158981,13.45092487335205,-0.586579442024231
1676383057590240300,12.832240234375,0.12210428714752197,13.23784065246582,-0.5913678407669067
1676383057600240000,12.842240234375,0.10773907601833344,13.216292381286621,-0.5793967843055725
1676383057610240000,12.852239990234375,0.14604631066322327,13.233052253723145,-0.5961562395095825
1676383057620240100,12.862240234375,0.14365209639072418,13.0822172164917,-0.5841852426528931
1676383057630240000,12.872239990234375,0.11971008777618408,13.060669898986816,-0.5578489899635315
1676383057640240000,12.882240234375,0.15083470940589905,13.048698425292969,-0.5147533416748047
1676383057650239200,12.8922392578125,0.17477671802043915,12.885892868041992,-0.5386953949928284
